Time,Gyro_X,Gyro_Y,Gyro_Z,EKF_Roll,EKF_Pitch,EKF_Yaw,DMP_Roll,DMP_Pitch,DMP_Yaw
241.0,0.0,0.0,0.0,36.54,-14.56,16.29,-2.2,-3.46,36.79
241.0,0.0,0.0,0.0,36.54,-14.56,16.29,-2.64,-3.16,0.06
241.0,0.0,-0.0,0.0,36.55,-14.57,16.3,-2.64,-3.16,0.06
241.0,0.0,-0.0,0.0,36.55,-14.57,16.3,-2.2,-3.46,36.79
241.0,0.0,-0.0,0.0,36.55,-14.57,16.3,-2.2,-3.46,36.79
241.0,0.0,-0.0,0.0,36.55,-14.57,16.3,-2.2,-3.46,36.79
241.0,0.0,-0.0,0.0,36.55,-14.57,16.3,-2.64,-3.16,0.06
241.0,0.0,-0.0,0.0,36.55,-14.57,16.3,-2.64,-3.16,0.06
241.0,0.0,0.0,0.0,36.57,-14.56,16.32,-2.64,-3.16,0.06
241.0,0.0,0.0,0.0,36.57,-14.56,16.32,-2.2,-3.46,36.79
241.0,0.0,0.0,0.0,36.57,-14.56,16.32,-2.64,-3.16,0.06
241.0,0.0,0.0,0.0,36.57,-14.56,16.32,-2.64,-3.16,0.06
241.0,0.0,0.0,0.0,36.57,-14.56,16.32,-2.64,-3.16,0.06
241.0,0.0,-0.0,0.0,36.59,-14.58,16.32,-2.64,-3.16,0.06
241.0,0.0,-0.0,0.0,36.59,-14.58,16.32,-2.2,-3.46,36.79
242.0,0.0,-0.0,0.0,36.59,-14.58,16.32,-2.64,-3.16,0.06
242.0,0.0,-0.0,0.0,36.59,-14.58,16.32,-2.64,-3.16,0.06
242.0,0.0,-0.0,0.0,36.59,-14.58,16.32,-2.64,-3.16,0.06
242.0,0.0,0.0,0.0,36.61,-14.57,16.32,-2.64,-3.16,0.06
242.0,0.0,0.0,0.0,36.61,-14.57,16.32,-2.2,-3.46,36.79
242.0,0.0,0.0,0.0,36.61,-14.57,16.32,-2.64,-3.16,0.06
242.0,0.0,0.0,0.0,36.61,-14.57,16.32,-2.64,-3.16,0.06
242.0,0.0,0.0,0.0,36.61,-14.57,16.32,-2.64,-3.16,0.06
242.0,-0.0,-0.0,0.0,36.6,-14.58,16.32,-2.64,-3.16,0.06
242.0,-0.0,-0.0,0.0,36.6,-14.58,16.32,-2.2,-3.46,36.79
242.0,-0.0,-0.0,0.0,36.6,-14.58,16.32,-2.64,-3.16,0.06
242.0,-0.0,-0.0,0.0,36.6,-14.58,16.32,-2.64,-3.16,0.06
242.0,-0.0,-0.0,0.0,36.6,-14.58,16.32,-2.64,-3.16,0.06
242.0,0.0,-0.0,0.0,36.61,-14.59,16.33,-2.64,-3.16,0.06
242.0,0.0,-0.0,0.0,36.61,-14.59,16.33,-2.2,-3.46,36.79
242.0,0.0,-0.0,0.0,36.61,-14.59,16.33,-2.64,-3.16,0.06
242.0,0.0,-0.0,0.0,36.61,-14.59,16.33,-2.64,-3.16,0.06
242.0,0.0,-0.0,0.0,36.61,-14.59,16.33,-2.64,-3.16,0.06
242.0,0.0,-0.0,0.0,36.62,-14.61,16.33,-2.64,-3.16,0.06
242.0,0.0,-0.0,0.0,36.62,-14.61,16.33,-2.2,-3.46,36.79
242.0,0.0,-0.0,0.0,36.62,-14.61,16.33,-2.64,-3.16,0.06
242.0,0.0,-0.0,0.0,36.62,-14.61,16.33,-2.64,-3.16,0.06
242.0,0.0,-0.0,0.0,36.62,-14.61,16.33,-2.64,-3.16,0.06
242.0,0.0,-0.0,0.0,36.63,-14.63,16.34,-2.64,-3.16,0.06
242.0,0.0,-0.0,0.0,36.63,-14.63,16.34,-2.2,-3.46,36.79
242.0,0.0,-0.0,0.0,36.63,-14.63,16.34,-2.64,-3.16,0.06
242.0,0.0,-0.0,0.0,36.63,-14.63,16.34,-2.64,-3.16,0.06
242.0,0.0,-0.0,0.0,36.63,-14.63,16.34,-2.64,-3.16,0.06
242.0,0.01,-0.0,0.0,36.67,-14.64,16.35,-2.64,-3.16,0.06
242.0,0.01,-0.0,0.0,36.67,-14.64,16.35,-2.2,-3.46,36.79
242.0,0.01,-0.0,0.0,36.67,-14.64,16.35,-2.64,-3.16,0.06
242.0,0.01,-0.0,0.0,36.67,-14.64,16.35,-2.64,-3.16,0.06
242.0,0.01,-0.0,0.0,36.67,-14.64,16.35,-2.64,-3.16,0.06
242.0,0.0,-0.0,0.0,36.69,-14.65,16.36,-2.64,-3.16,0.06
242.0,0.0,-0.0,0.0,36.69,-14.65,16.36,-2.2,-3.46,36.79
242.0,0.0,-0.0,0.0,36.69,-14.65,16.36,-2.64,-3.16,0.06
242.0,0.0,-0.0,0.0,36.69,-14.65,16.36,-2.64,-3.16,0.06
242.0,0.0,-0.0,0.0,36.69,-14.65,16.36,-2.64,-3.16,0.06
242.0,0.0,-0.0,0.01,36.71,-14.66,16.4,-2.64,-3.16,0.06
242.0,0.0,-0.0,0.01,36.71,-14.66,16.4,-2.2,-3.46,36.79
242.0,0.0,-0.0,0.01,36.71,-14.66,16.4,-2.64,-3.16,0.06
242.0,0.0,-0.0,0.01,36.71,-14.66,16.4,-2.64,-3.16,0.06
242.0,0.0,-0.0,0.0,36.73,-14.67,16.42,-2.64,-3.16,0.06
242.0,0.0,-0.0,0.0,36.73,-14.67,16.42,-2.2,-3.46,36.79
242.0,0.0,-0.0,0.0,36.73,-14.67,16.42,-2.64,-3.16,0.06
242.0,0.0,-0.0,0.0,36.73,-14.67,16.42,-2.64,-3.16,0.06
242.0,0.0,-0.0,0.0,36.73,-14.67,16.42,-2.64,-3.16,0.06
243.0,0.0,0.0,0.0,36.75,-14.66,16.44,-2.64,-3.16,0.06
243.0,0.0,0.0,0.0,36.75,-14.66,16.44,-2.2,-3.46,36.79
243.0,0.0,0.0,0.0,36.75,-14.66,16.44,-2.64,-3.16,0.06
243.0,0.0,0.0,0.0,36.75,-14.66,16.44,-2.64,-3.16,0.06
243.0,0.0,0.0,0.0,36.75,-14.66,16.44,-2.64,-3.16,0.06
243.0,0.0,-0.0,0.0,36.76,-14.67,16.44,-2.64,-3.16,0.06
243.0,0.0,-0.0,0.0,36.76,-14.67,16.44,-2.2,-3.46,36.79
243.0,0.0,-0.0,0.0,36.76,-14.67,16.44,-2.64,-3.16,0.06
243.0,0.0,-0.0,0.0,36.76,-14.67,16.44,-2.64,-3.16,0.06
243.0,0.0,-0.0,0.0,36.76,-14.67,16.44,-2.64,-3.16,0.06
243.0,0.01,0.0,0.0,36.81,-14.67,16.45,-2.64,-3.16,0.06
243.0,0.01,0.0,0.0,36.81,-14.67,16.45,-2.2,-3.46,36.79
243.0,0.01,0.0,0.0,36.81,-14.67,16.45,-2.64,-3.16,0.06
243.0,0.01,0.0,0.0,36.81,-14.67,16.45,-2.64,-3.16,0.06
243.0,0.01,0.0,0.0,36.81,-14.67,16.45,-2.64,-3.16,0.06
243.0,0.01,0.0,0.0,36.81,-14.67,16.45,-2.64,-3.16,0.06
243.0,0.01,0.0,0.0,36.85,-14.66,16.45,-2.64,-3.16,0.06
243.0,0.01,0.0,0.0,36.85,-14.66,16.45,-2.2,-3.46,36.79
243.0,0.01,0.0,0.0,36.85,-14.66,16.45,-2.2,-3.46,36.79
243.0,0.01,0.0,0.0,36.85,-14.66,16.45,-2.2,-3.46,36.79
243.0,0.01,0.0,0.0,36.85,-14.66,16.45,-2.64,-3.16,0.06
243.0,0.0,-0.0,0.0,36.87,-14.67,16.45,-2.64,-3.16,0.06
243.0,0.0,-0.0,0.0,36.87,-14.67,16.45,-2.2,-3.46,36.79
243.0,0.0,-0.0,0.0,36.87,-14.67,16.45,-2.2,-3.46,36.79
243.0,0.0,-0.0,0.0,36.87,-14.67,16.45,-2.2,-3.46,36.79
243.0,0.0,-0.0,0.0,36.87,-14.67,16.45,-2.64,-3.16,0.06
243.0,0.0,-0.0,0.0,36.87,-14.68,16.45,-2.64,-3.16,0.06
243.0,0.0,-0.0,0.0,36.87,-14.68,16.45,-2.2,-3.46,36.79
243.0,0.0,-0.0,0.0,36.87,-14.68,16.45,-2.2,-3.46,36.79
243.0,0.0,-0.0,0.0,36.87,-14.68,16.45,-2.64,-3.16,0.06
243.0,0.0,-0.0,0.0,36.87,-14.68,16.45,-2.64,-3.16,0.06
243.0,0.01,-0.0,0.0,36.91,-14.69,16.46,-2.64,-3.16,0.06
243.0,0.01,-0.0,0.0,36.91,-14.69,16.46,-2.2,-3.46,36.79
243.0,0.01,-0.0,0.0,36.91,-14.69,16.46,-2.2,-3.46,36.79
243.0,0.01,-0.0,0.0,36.91,-14.69,16.46,-2.64,-3.16,0.06
243.0,0.01,-0.0,0.0,36.91,-14.69,16.46,-2.64,-3.16,0.06
243.0,0.0,-0.0,0.0,36.93,-14.7,16.47,-2.64,-3.16,0.06
243.0,0.0,-0.0,0.0,36.93,-14.7,16.47,-2.2,-3.46,36.79
243.0,0.0,-0.0,0.0,36.93,-14.7,16.47,-2.2,-3.46,36.79
243.0,0.0,-0.0,0.0,36.93,-14.7,16.47,-2.64,-3.16,0.06
243.0,0.0,-0.0,0.0,36.93,-14.7,16.47,-2.64,-3.16,0.06
243.0,0.0,-0.0,0.01,36.94,-14.72,16.51,-2.64,-3.16,0.06
243.0,0.0,-0.0,0.01,36.94,-14.72,16.51,-2.2,-3.46,36.79
243.0,0.0,-0.0,0.01,36.94,-14.72,16.51,-2.2,-3.46,36.79
243.0,0.0,-0.0,0.01,36.94,-14.72,16.51,-2.64,-3.16,0.06
243.0,0.0,-0.0,0.01,36.94,-14.72,16.51,-2.64,-3.16,0.06
243.0,-0.0,0.0,-0.0,36.93,-14.7,16.49,-2.64,-3.16,0.06
243.0,-0.0,0.0,-0.0,36.93,-14.7,16.49,-2.2,-3.46,36.79
244.0,-0.0,0.0,-0.0,36.93,-14.7,16.49,-2.2,-3.46,36.79
244.0,-0.0,0.0,-0.0,36.93,-14.7,16.49,-2.64,-3.16,0.06
244.0,0.0,-0.0,0.0,36.95,-14.71,16.5,-2.64,-3.16,0.06
244.0,0.0,-0.0,0.0,36.95,-14.71,16.5,-2.2,-3.46,36.79
244.0,0.0,-0.0,0.0,36.95,-14.71,16.5,-2.2,-3.46,36.79
244.0,0.0,-0.0,0.0,36.95,-14.71,16.5,-2.2,-3.46,36.79
244.0,0.0,-0.0,0.0,36.95,-14.71,16.5,-2.64,-3.16,0.06
244.0,0.0,-0.0,0.0,36.98,-14.74,16.5,-2.64,-3.16,0.06
244.0,0.0,-0.0,0.0,36.98,-14.74,16.5,-2.2,-3.46,36.79
244.0,0.0,-0.0,0.0,36.98,-14.74,16.5,-2.2,-3.46,36.79
244.0,0.0,-0.0,0.0,36.98,-14.74,16.5,-2.2,-3.46,36.79
244.0,0.0,-0.0,0.0,36.98,-14.74,16.5,-2.64,-3.16,0.06
244.0,-0.0,-0.0,0.0,36.96,-14.75,16.5,-2.64,-3.16,0.06
244.0,-0.0,-0.0,0.0,36.96,-14.75,16.5,-2.2,-3.46,36.79
244.0,-0.0,-0.0,0.0,36.96,-14.75,16.5,-2.2,-3.46,36.79
244.0,-0.0,-0.0,0.0,36.96,-14.75,16.5,-2.2,-3.46,36.79
244.0,-0.0,-0.0,0.0,36.96,-14.75,16.5,-2.64,-3.16,0.06
244.0,0.0,0.0,-0.0,36.99,-14.75,16.49,-2.64,-3.16,0.06
244.0,0.0,0.0,-0.0,36.99,-14.75,16.49,-2.2,-3.46,36.79
244.0,0.0,0.0,-0.0,36.99,-14.75,16.49,-2.2,-3.46,36.79
244.0,0.0,0.0,-0.0,36.99,-14.75,16.49,-2.2,-3.46,36.79
244.0,0.0,0.0,-0.0,36.99,-14.75,16.49,-2.64,-3.16,0.06
244.0,0.0,-0.0,0.0,37.01,-14.76,16.51,-2.64,-3.16,0.06
244.0,0.0,-0.0,0.0,37.01,-14.76,16.51,-2.2,-3.46,36.79
244.0,0.0,-0.0,0.0,37.01,-14.76,16.51,-2.2,-3.46,36.79
244.0,0.0,-0.0,0.0,37.01,-14.76,16.51,-2.2,-3.46,36.79
244.0,0.0,-0.0,0.0,37.01,-14.76,16.51,-2.64,-3.16,0.06
244.0,0.0,-0.0,0.0,37.02,-14.77,16.52,-2.64,-3.16,0.06
244.0,0.0,-0.0,0.0,37.02,-14.77,16.52,-2.2,-3.46,36.79
244.0,0.0,-0.0,0.0,37.02,-14.77,16.52,-2.2,-3.46,36.79
244.0,0.0,-0.0,0.0,37.02,-14.77,16.52,-2.64,-3.16,0.06
244.0,0.0,-0.0,0.0,37.02,-14.77,16.52,-2.64,-3.16,0.06
244.0,0.0,0.0,0.0,37.03,-14.77,16.53,-2.64,-3.16,0.06
244.0,0.0,0.0,0.0,37.03,-14.77,16.53,-2.2,-3.46,36.79
244.0,0.0,0.0,0.0,37.03,-14.77,16.53,-2.2,-3.46,36.79
244.0,0.0,0.0,0.0,37.03,-14.77,16.53,-2.64,-3.16,0.06
244.0,0.0,0.0,0.0,37.03,-14.77,16.53,-2.64,-3.16,0.06
244.0,-0.0,0.0,0.0,37.01,-14.76,16.53,-2.64,-3.16,0.06
244.0,-0.0,0.0,0.0,37.01,-14.76,16.53,-2.2,-3.46,36.79
244.0,-0.0,0.0,0.0,37.01,-14.76,16.53,-2.2,-3.46,36.79
244.0,-0.0,0.0,0.0,37.01,-14.76,16.53,-2.64,-3.16,0.06
244.0,-0.0,0.0,0.0,37.01,-14.76,16.53,-2.64,-3.16,0.06
244.0,0.01,-0.0,0.0,37.04,-14.77,16.54,-2.64,-3.16,0.06
244.0,0.01,-0.0,0.0,37.04,-14.77,16.54,-2.21,-3.47,36.79
244.0,0.01,-0.0,0.0,37.04,-14.77,16.54,-2.21,-3.47,36.79
244.0,0.01,-0.0,0.0,37.04,-14.77,16.54,-2.64,-3.16,0.06
244.0,0.01,-0.0,0.0,37.04,-14.77,16.54,-2.64,-3.16,0.06
244.0,0.0,-0.0,-0.0,37.06,-14.78,16.53,-2.64,-3.16,0.06
244.0,0.0,-0.0,-0.0,37.06,-14.78,16.53,-2.21,-3.47,36.79
245.0,0.0,-0.0,-0.0,37.06,-14.78,16.53,-2.21,-3.47,36.79
245.0,0.0,-0.0,-0.0,37.06,-14.78,16.53,-2.64,-3.16,0.06
245.0,0.0,-0.0,-0.0,37.06,-14.78,16.53,-2.64,-3.16,0.06
245.0,0.0,0.0,0.0,37.07,-14.77,16.54,-2.64,-3.16,0.06
245.0,0.0,0.0,0.0,37.07,-14.77,16.54,-2.21,-3.47,36.79
245.0,0.0,0.0,0.0,37.07,-14.77,16.54,-2.21,-3.47,36.79
245.0,0.0,0.0,0.0,37.07,-14.77,16.54,-2.64,-3.16,0.06
245.0,0.0,0.0,-0.0,37.09,-14.77,16.53,-2.64,-3.16,0.06
245.0,0.0,0.0,-0.0,37.09,-14.77,16.53,-2.2,-3.47,36.79
245.0,0.0,0.0,-0.0,37.09,-14.77,16.53,-2.2,-3.47,36.79
245.0,0.0,0.0,-0.0,37.09,-14.77,16.53,-2.2,-3.47,36.79
245.0,0.0,0.0,-0.0,37.09,-14.77,16.53,-2.64,-3.16,0.06
245.0,-0.0,-0.0,0.0,37.08,-14.78,16.54,-2.64,-3.16,0.06
245.0,-0.0,-0.0,0.0,37.08,-14.78,16.54,-2.2,-3.47,36.79
245.0,-0.0,-0.0,0.0,37.08,-14.78,16.54,-2.2,-3.47,36.79
245.0,-0.0,-0.0,0.0,37.08,-14.78,16.54,-2.2,-3.47,36.79
245.0,-0.0,-0.0,0.0,37.08,-14.78,16.54,-2.64,-3.16,0.06
245.0,0.0,-0.0,0.0,37.1,-14.8,16.55,-2.64,-3.16,0.06
245.0,0.0,-0.0,0.0,37.1,-14.8,16.55,-2.2,-3.47,36.79
245.0,0.0,-0.0,0.0,37.1,-14.8,16.55,-2.2,-3.47,36.79
245.0,0.0,-0.0,0.0,37.1,-14.8,16.55,-2.2,-3.47,36.79
245.0,0.0,-0.0,0.0,37.1,-14.8,16.55,-2.64,-3.16,0.06
245.0,0.0,-0.0,0.0,37.11,-14.81,16.56,-2.64,-3.16,0.06
245.0,0.0,-0.0,0.0,37.11,-14.81,16.56,-2.21,-3.46,36.79
245.0,0.0,-0.0,0.0,37.11,-14.81,16.56,-2.21,-3.46,36.79
245.0,0.0,-0.0,0.0,37.11,-14.81,16.56,-2.64,-3.16,0.06
245.0,0.0,-0.0,0.0,37.11,-14.81,16.56,-2.64,-3.16,0.06
245.0,-0.0,-0.0,0.0,37.1,-14.82,16.58,-2.64,-3.16,0.06
245.0,-0.0,-0.0,0.0,37.1,-14.82,16.58,-2.21,-3.46,36.79
245.0,-0.0,-0.0,0.0,37.1,-14.82,16.58,-2.21,-3.46,36.79
245.0,-0.0,-0.0,0.0,37.1,-14.82,16.58,-2.64,-3.16,0.06
245.0,-0.0,-0.0,0.0,37.1,-14.82,16.58,-2.64,-3.16,0.06
245.0,-0.0,-0.0,0.0,37.1,-14.82,16.58,-2.64,-3.16,0.06
245.0,0.0,-0.0,0.0,37.12,-14.83,16.59,-2.64,-3.16,0.06
245.0,0.0,-0.0,0.0,37.12,-14.83,16.59,-2.21,-3.46,36.79
245.0,0.0,-0.0,0.0,37.12,-14.83,16.59,-2.64,-3.16,0.06
245.0,0.0,-0.0,0.0,37.12,-14.83,16.59,-2.64,-3.16,0.06
245.0,0.0,-0.0,0.0,37.12,-14.83,16.59,-2.64,-3.16,0.06
245.0,0.0,-0.0,0.0,37.12,-14.83,16.59,-2.64,-3.16,0.06
245.0,0.0,-0.0,0.0,37.14,-14.85,16.62,-2.64,-3.16,0.06
245.0,0.0,-0.0,0.0,37.14,-14.85,16.62,-2.21,-3.46,36.79
245.0,0.0,-0.0,0.0,37.14,-14.85,16.62,-2.21,-3.46,36.79
245.0,0.0,-0.0,0.0,37.14,-14.85,16.62,-2.21,-3.46,36.79
245.0,0.0,-0.0,0.0,37.14,-14.85,16.62,-2.64,-3.16,0.06
245.0,-0.0,-0.0,0.0,37.13,-14.87,16.62,-2.64,-3.16,0.06
245.0,-0.0,-0.0,0.0,37.13,-14.87,16.62,-2.21,-3.46,36.79
245.0,-0.0,-0.0,0.0,37.13,-14.87,16.62,-2.21,-3.46,36.79
246.0,-0.0,-0.0,0.0,37.13,-14.87,16.62,-2.21,-3.46,36.79
246.0,-0.0,-0.0,0.0,37.13,-14.87,16.62,-2.64,-3.16,0.06
246.0,0.0,0.0,0.0,37.13,-14.87,16.63,-2.64,-3.16,0.06
246.0,0.0,0.0,0.0,37.13,-14.87,16.63,-2.21,-3.46,36.79
246.0,0.0,0.0,0.0,37.13,-14.87,16.63,-2.21,-3.46,36.79
246.0,0.0,0.0,0.0,37.13,-14.87,16.63,-2.21,-3.46,36.79
246.0,0.0,0.0,0.0,37.13,-14.87,16.63,-2.64,-3.16,0.06
246.0,0.01,-0.0,0.0,37.18,-14.88,16.63,-2.64,-3.16,0.06
246.0,0.01,-0.0,0.0,37.18,-14.88,16.63,-2.21,-3.46,36.79
246.0,0.01,-0.0,0.0,37.18,-14.88,16.63,-2.21,-3.46,36.79
246.0,0.01,-0.0,0.0,37.18,-14.88,16.63,-2.21,-3.46,36.79
246.0,0.01,-0.0,0.0,37.18,-14.88,16.63,-2.64,-3.16,0.06
246.0,0.01,0.0,0.0,37.21,-14.87,16.64,-2.64,-3.16,0.06
246.0,0.01,0.0,0.0,37.21,-14.87,16.64,-2.21,-3.46,36.79
246.0,0.01,0.0,0.0,37.21,-14.87,16.64,-2.21,-3.46,36.79
246.0,0.01,0.0,0.0,37.21,-14.87,16.64,-2.21,-3.46,36.79
246.0,0.01,0.0,0.0,37.21,-14.87,16.64,-2.64,-3.16,0.06
246.0,-0.0,-0.0,0.0,37.18,-14.88,16.64,-2.64,-3.16,0.06
246.0,-0.0,-0.0,0.0,37.18,-14.88,16.64,-2.21,-3.46,36.79
246.0,-0.0,-0.0,0.0,37.18,-14.88,16.64,-2.21,-3.46,36.79
246.0,-0.0,-0.0,0.0,37.18,-14.88,16.64,-2.21,-3.46,36.79
246.0,-0.0,-0.0,0.0,37.18,-14.88,16.64,-2.64,-3.16,0.06
246.0,-0.0,-0.0,-0.0,37.17,-14.89,16.63,-2.64,-3.16,0.06
246.0,-0.0,-0.0,-0.0,37.17,-14.89,16.63,-2.21,-3.46,36.79
246.0,-0.0,-0.0,-0.0,37.17,-14.89,16.63,-2.21,-3.46,36.79
246.0,-0.0,-0.0,-0.0,37.17,-14.89,16.63,-2.64,-3.16,0.06
246.0,-0.0,-0.0,-0.0,37.17,-14.89,16.63,-2.64,-3.16,0.06
246.0,0.0,-0.0,-0.0,37.18,-14.91,16.61,-2.64,-3.16,0.06
246.0,0.0,-0.0,-0.0,37.18,-14.91,16.61,-2.21,-3.46,36.79
246.0,0.0,-0.0,-0.0,37.18,-14.91,16.61,-2.21,-3.46,36.79
246.0,0.0,-0.0,-0.0,37.18,-14.91,16.61,-2.64,-3.16,0.06
246.0,0.0,-0.0,-0.0,37.18,-14.91,16.61,-2.64,-3.16,0.06
246.0,0.01,0.0,0.0,37.22,-14.91,16.64,-2.64,-3.16,0.06
246.0,0.01,0.0,0.0,37.22,-14.91,16.64,-2.21,-3.46,36.79
246.0,0.01,0.0,0.0,37.22,-14.91,16.64,-2.21,-3.46,36.79
246.0,0.01,0.0,0.0,37.22,-14.91,16.64,-2.64,-3.16,0.06
246.0,0.01,0.0,0.0,37.22,-14.91,16.64,-2.64,-3.16,0.06
246.0,0.0,-0.0,0.0,37.22,-14.92,16.64,-2.64,-3.16,0.06
246.0,0.0,-0.0,0.0,37.22,-14.92,16.64,-2.21,-3.46,36.79
246.0,0.0,-0.0,0.0,37.22,-14.92,16.64,-2.21,-3.46,36.79
246.0,0.0,-0.0,0.0,37.22,-14.92,16.64,-2.64,-3.16,0.06
246.0,0.0,-0.0,0.0,37.22,-14.92,16.64,-2.64,-3.16,0.06
246.0,-0.0,-0.0,-0.0,37.2,-14.93,16.63,-2.64,-3.16,0.06
246.0,-0.0,-0.0,-0.0,37.2,-14.93,16.63,-2.21,-3.46,36.79
246.0,-0.0,-0.0,-0.0,37.2,-14.93,16.63,-2.21,-3.46,36.79
246.0,-0.0,-0.0,-0.0,37.2,-14.93,16.63,-2.64,-3.16,0.06
246.0,-0.0,-0.0,-0.0,37.2,-14.93,16.63,-2.64,-3.16,0.06
246.0,0.01,0.0,-0.0,37.24,-14.92,16.61,-2.64,-3.16,0.06
246.0,0.01,0.0,-0.0,37.24,-14.92,16.61,-2.21,-3.46,36.79
247.0,0.01,0.0,-0.0,37.24,-14.92,16.61,-2.21,-3.46,36.79
247.0,0.01,0.0,-0.0,37.24,-14.92,16.61,-2.64,-3.16,0.06
247.0,0.01,0.0,-0.0,37.24,-14.92,16.61,-2.64,-3.16,0.06
247.0,0.0,0.0,0.0,37.25,-14.9,16.64,-2.64,-3.16,0.06
247.0,0.0,0.0,0.0,37.25,-14.9,16.64,-2.21,-3.46,36.79
247.0,0.0,0.0,0.0,37.25,-14.9,16.64,-2.21,-3.46,36.79
247.0,0.0,0.0,0.0,37.25,-14.9,16.64,-2.64,-3.16,0.06
247.0,0.0,0.0,0.0,37.25,-14.9,16.64,-2.64,-3.16,0.06
247.0,0.0,-0.0,0.0,37.27,-14.92,16.64,-2.64,-3.16,0.06
247.0,0.0,-0.0,0.0,37.27,-14.92,16.64,-2.21,-3.46,36.79
247.0,0.0,-0.0,0.0,37.27,-14.92,16.64,-2.21,-3.46,36.79
247.0,0.0,-0.0,0.0,37.27,-14.92,16.64,-2.64,-3.16,0.06
247.0,0.0,-0.0,0.0,37.27,-14.92,16.64,-2.64,-3.16,0.06
247.0,0.0,0.0,0.0,37.3,-14.9,16.66,-2.64,-3.16,0.06
247.0,0.0,0.0,0.0,37.3,-14.9,16.66,-2.21,-3.46,36.79
247.0,0.0,0.0,0.0,37.3,-14.9,16.66,-2.21,-3.46,36.79
247.0,0.0,0.0,0.0,37.3,-14.9,16.66,-2.64,-3.16,0.06
247.0,0.0,0.0,0.0,37.3,-14.9,16.66,-2.64,-3.16,0.06
247.0,0.0,-0.0,0.0,37.32,-14.92,16.67,-2.64,-3.16,0.06
247.0,0.0,-0.0,0.0,37.32,-14.92,16.67,-2.21,-3.46,36.79
247.0,0.0,-0.0,0.0,37.32,-14.92,16.67,-2.21,-3.46,36.79
247.0,0.0,-0.0,0.0,37.32,-14.92,16.67,-2.64,-3.16,0.06
247.0,0.0,-0.0,0.0,37.32,-14.92,16.67,-2.64,-3.16,0.06
247.0,0.0,0.0,0.0,37.32,-14.92,16.69,-2.64,-3.16,0.06
247.0,0.0,0.0,0.0,37.32,-14.92,16.69,-2.2,-3.47,36.79
247.0,0.0,0.0,0.0,37.32,-14.92,16.69,-2.2,-3.47,36.79
247.0,0.0,0.0,0.0,37.32,-14.92,16.69,-2.64,-3.16,0.06
247.0,0.0,0.0,0.0,37.32,-14.92,16.69,-2.64,-3.16,0.06
247.0,0.0,0.0,0.0,37.32,-14.92,16.69,-2.64,-3.16,0.06
247.0,0.0,0.0,0.0,37.32,-14.92,16.69,-2.64,-3.16,0.06
247.0,0.0,-0.0,-0.0,37.35,-14.93,16.67,-2.64,-3.16,0.06
247.0,0.0,-0.0,-0.0,37.35,-14.93,16.67,-2.2,-3.47,36.79
247.0,0.0,-0.0,-0.0,37.35,-14.93,16.67,-2.2,-3.47,36.79
247.0,0.0,-0.0,-0.0,37.35,-14.93,16.67,-2.64,-3.16,0.06
247.0,0.0,-0.0,-0.0,37.35,-14.93,16.67,-2.64,-3.16,0.06
247.0,0.0,-0.0,0.0,37.36,-14.94,16.67,-2.64,-3.16,0.06
247.0,0.0,-0.0,0.0,37.36,-14.94,16.67,-2.2,-3.47,36.79
247.0,0.0,-0.0,0.0,37.36,-14.94,16.67,-2.2,-3.47,36.79
247.0,0.0,-0.0,0.0,37.36,-14.94,16.67,-2.64,-3.16,0.06
247.0,0.0,-0.0,0.0,37.36,-14.94,16.67,-2.64,-3.16,0.06
247.0,-0.0,-0.0,0.0,37.35,-14.96,16.68,-2.64,-3.16,0.06
247.0,-0.0,-0.0,0.0,37.35,-14.96,16.68,-2.2,-3.47,36.79
247.0,-0.0,-0.0,0.0,37.35,-14.96,16.68,-2.2,-3.47,36.79
247.0,-0.0,-0.0,0.0,37.35,-14.96,16.68,-2.64,-3.16,0.06
247.0,-0.0,-0.0,0.0,37.35,-14.96,16.68,-2.64,-3.16,0.06
247.0,0.0,-0.0,0.0,37.35,-14.97,16.68,-2.64,-3.16,0.06
247.0,0.0,-0.0,0.0,37.35,-14.97,16.68,-2.2,-3.47,36.79
248.0,0.0,-0.0,0.0,37.35,-14.97,16.68,-2.2,-3.47,36.79
248.0,0.0,-0.0,0.0,37.35,-14.97,16.68,-2.64,-3.16,0.06
248.0,0.0,-0.0,0.0,37.35,-14.97,16.68,-2.64,-3.16,0.06
248.0,0.01,-0.0,0.0,37.39,-14.99,16.7,-2.64,-3.16,0.06
248.0,0.01,-0.0,0.0,37.39,-14.99,16.7,-2.2,-3.47,36.79
248.0,0.01,-0.0,0.0,37.39,-14.99,16.7,-2.2,-3.47,36.79
248.0,0.01,-0.0,0.0,37.39,-14.99,16.7,-2.64,-3.16,0.06
248.0,0.01,-0.0,0.0,37.39,-14.99,16.7,-2.64,-3.16,0.06
248.0,0.0,-0.0,0.0,37.4,-15.0,16.71,-2.64,-3.16,0.06
248.0,0.0,-0.0,0.0,37.4,-15.0,16.71,-2.2,-3.47,36.79
248.0,0.0,-0.0,0.0,37.4,-15.0,16.71,-2.2,-3.47,36.79
248.0,0.0,-0.0,0.0,37.4,-15.0,16.71,-2.64,-3.16,0.06
248.0,0.0,-0.0,0.0,37.4,-15.0,16.71,-2.64,-3.16,0.06
248.0,0.0,0.0,0.0,37.41,-15.0,16.71,-2.64,-3.16,0.06
248.0,0.0,0.0,0.0,37.41,-15.0,16.71,-2.2,-3.47,36.79
248.0,0.0,0.0,0.0,37.41,-15.0,16.71,-2.64,-3.16,0.06
248.0,0.0,0.0,0.0,37.41,-15.0,16.71,-2.64,-3.16,0.06
248.0,0.0,0.0,0.0,37.42,-15.0,16.72,-2.64,-3.16,0.06
248.0,0.0,0.0,0.0,37.42,-15.0,16.72,-2.2,-3.47,36.79
248.0,0.0,0.0,0.0,37.42,-15.0,16.72,-2.2,-3.47,36.79
248.0,0.0,0.0,0.0,37.42,-15.0,16.72,-2.64,-3.16,0.06
248.0,0.0,0.0,0.0,37.42,-15.0,16.72,-2.64,-3.16,0.06
248.0,-0.0,-0.0,0.0,37.41,-15.02,16.74,-2.64,-3.16,0.06
248.0,-0.0,-0.0,0.0,37.41,-15.02,16.74,-2.2,-3.47,36.79
248.0,-0.0,-0.0,0.0,37.41,-15.02,16.74,-2.64,-3.16,0.06
248.0,-0.0,-0.0,0.0,37.41,-15.02,16.74,-2.64,-3.16,0.06
248.0,-0.0,-0.0,0.0,37.41,-15.02,16.74,-2.64,-3.16,0.06
248.0,0.0,-0.0,0.0,37.42,-15.05,16.75,-2.64,-3.16,0.06
248.0,0.0,-0.0,0.0,37.42,-15.05,16.75,-2.2,-3.47,36.79
248.0,0.0,-0.0,0.0,37.42,-15.05,16.75,-2.64,-3.16,0.06
248.0,0.0,-0.0,0.0,37.42,-15.05,16.75,-2.64,-3.16,0.06
248.0,0.0,-0.0,0.0,37.42,-15.05,16.75,-2.64,-3.16,0.06
248.0,0.01,0.0,0.0,37.46,-15.05,16.76,-2.64,-3.16,0.06
248.0,0.01,0.0,0.0,37.46,-15.05,16.76,-2.2,-3.47,36.79
248.0,0.01,0.0,0.0,37.46,-15.05,16.76,-2.65,-3.15,0.06
248.0,0.01,0.0,0.0,37.46,-15.05,16.76,-2.65,-3.15,0.06
248.0,0.01,0.0,0.0,37.46,-15.05,16.76,-2.65,-3.15,0.06
248.0,0.0,-0.0,0.0,37.48,-15.06,16.76,-2.65,-3.15,0.06
248.0,0.0,-0.0,0.0,37.48,-15.06,16.76,-2.2,-3.46,36.79
248.0,0.0,-0.0,0.0,37.48,-15.06,16.76,-2.65,-3.15,0.05
248.0,0.0,-0.0,0.0,37.48,-15.06,16.76,-2.65,-3.15,0.05
248.0,0.01,-0.0,0.0,37.52,-15.08,16.79,-2.65,-3.15,0.05
248.0,0.01,-0.0,0.0,37.52,-15.08,16.79,-2.19,-3.45,36.79
248.0,0.01,-0.0,0.0,37.52,-15.08,16.79,-2.19,-3.45,36.79
248.0,0.01,-0.0,0.0,37.52,-15.08,16.79,-2.65,-3.15,0.05
248.0,0.01,-0.0,0.0,37.52,-15.08,16.79,-2.65,-3.15,0.05
249.0,0.0,-0.0,0.0,37.53,-15.09,16.79,-2.65,-3.15,0.05
249.0,0.0,-0.0,0.0,37.53,-15.09,16.79,-2.19,-3.44,36.78
249.0,0.0,-0.0,0.0,37.53,-15.09,16.79,-2.65,-3.14,0.04
249.0,0.0,-0.0,0.0,37.53,-15.09,16.79,-2.65,-3.14,0.04
249.0,0.0,-0.0,0.0,37.53,-15.09,16.79,-2.65,-3.14,0.04
249.0,0.0,0.0,0.0,37.55,-15.09,16.8,-2.65,-3.14,0.04
249.0,0.0,0.0,0.0,37.55,-15.09,16.8,-2.19,-3.44,36.79
249.0,0.0,0.0,0.0,37.55,-15.09,16.8,-2.66,-3.14,0.04
249.0,0.0,0.0,0.0,37.55,-15.09,16.8,-2.66,-3.14,0.04
249.0,0.0,0.0,0.0,37.55,-15.09,16.8,-2.66,-3.14,0.04
249.0,0.0,0.0,0.0,37.55,-15.09,16.8,-2.66,-3.13,0.04
249.0,0.01,-0.0,0.0,37.59,-15.11,16.81,-2.66,-3.13,0.04
249.0,0.01,-0.0,0.0,37.59,-15.11,16.81,-2.19,-3.45,36.79
249.0,0.01,-0.0,0.0,37.59,-15.11,16.81,-2.19,-3.45,36.79
249.0,0.01,-0.0,0.0,37.59,-15.11,16.81,-2.19,-3.45,36.79
249.0,0.01,-0.0,0.0,37.59,-15.11,16.81,-2.66,-3.14,0.04
249.0,0.0,-0.0,0.0,37.6,-15.12,16.82,-2.66,-3.14,0.04
249.0,0.0,-0.0,0.0,37.6,-15.12,16.82,-2.19,-3.45,36.79
249.0,0.0,-0.0,0.0,37.6,-15.12,16.82,-2.19,-3.45,36.79
249.0,0.0,-0.0,0.0,37.6,-15.12,16.82,-2.19,-3.45,36.79
249.0,0.0,-0.0,0.0,37.6,-15.12,16.82,-2.67,-3.13,0.04
249.0,0.0,-0.0,0.0,37.6,-15.12,16.82,-2.67,-3.13,0.04
249.0,0.0,0.0,0.0,37.63,-15.12,16.82,-2.67,-3.13,0.04
249.0,0.0,0.0,0.0,37.63,-15.12,16.82,-2.19,-3.45,36.79
249.0,0.0,0.0,0.0,37.63,-15.12,16.82,-2.19,-3.45,36.79
249.0,0.0,0.0,0.0,37.63,-15.12,16.82,-2.67,-3.13,0.04
249.0,0.0,0.0,0.0,37.63,-15.12,16.82,-2.67,-3.13,0.04
249.0,0.0,-0.0,0.0,37.66,-15.13,16.82,-2.67,-3.13,0.04
249.0,0.0,-0.0,0.0,37.66,-15.13,16.82,-2.19,-3.45,36.79
249.0,0.0,-0.0,0.0,37.66,-15.13,16.82,-2.67,-3.13,0.04
249.0,0.0,-0.0,0.0,37.66,-15.13,16.82,-2.67,-3.13,0.04
249.0,0.0,-0.0,0.0,37.66,-15.13,16.82,-2.67,-3.13,0.04
249.0,0.0,-0.0,0.0,37.67,-15.15,16.83,-2.67,-3.13,0.04
249.0,0.0,-0.0,0.0,37.67,-15.15,16.83,-2.19,-3.45,36.79
249.0,0.0,-0.0,0.0,37.67,-15.15,16.83,-2.67,-3.13,0.04
249.0,0.0,-0.0,0.0,37.67,-15.15,16.83,-2.67,-3.13,0.04
249.0,0.0,-0.0,0.0,37.67,-15.15,16.83,-2.67,-3.13,0.04
249.0,0.01,-0.0,0.0,37.7,-15.16,16.84,-2.67,-3.13,0.04
249.0,0.01,-0.0,0.0,37.7,-15.16,16.84,-2.19,-3.45,36.79
249.0,0.01,-0.0,0.0,37.7,-15.16,16.84,-2.67,-3.13,0.04
249.0,0.01,-0.0,0.0,37.7,-15.16,16.84,-2.67,-3.13,0.04
249.0,0.01,-0.0,0.0,37.7,-15.16,16.84,-2.67,-3.13,0.04
249.0,0.0,-0.0,-0.0,37.73,-15.18,16.83,-2.67,-3.13,0.04
249.0,0.0,-0.0,-0.0,37.73,-15.18,16.83,-2.19,-3.45,36.79
249.0,0.0,-0.0,-0.0,37.73,-15.18,16.83,-2.67,-3.13,0.04
249.0,0.0,-0.0,-0.0,37.73,-15.18,16.83,-2.67,-3.13,0.04
249.0,0.0,-0.0,-0.0,37.73,-15.18,16.83,-2.67,-3.13,0.04
249.0,0.01,-0.0,0.0,37.76,-15.19,16.84,-2.67,-3.13,0.04
250.0,0.01,-0.0,0.0,37.76,-15.19,16.84,-2.19,-3.45,36.79
250.0,0.01,-0.0,0.0,37.76,-15.19,16.84,-2.67,-3.13,0.04
250.0,0.01,-0.0,0.0,37.76,-15.19,16.84,-2.67,-3.13,0.04
250.0,0.01,-0.0,0.0,37.76,-15.19,16.84,-2.67,-3.13,0.04
250.0,0.0,-0.0,0.0,37.78,-15.2,16.86,-2.67,-3.13,0.04
250.0,0.0,-0.0,0.0,37.78,-15.2,16.86,-2.19,-3.45,36.79
250.0,0.0,-0.0,0.0,37.78,-15.2,16.86,-2.67,-3.13,0.04
250.0,0.0,-0.0,0.0,37.78,-15.2,16.86,-2.67,-3.13,0.04
250.0,0.0,-0.0,0.0,37.78,-15.2,16.86,-2.67,-3.13,0.04
250.0,0.0,0.0,0.0,37.81,-15.2,16.87,-2.67,-3.13,0.04
250.0,0.0,0.0,0.0,37.81,-15.2,16.87,-2.19,-3.45,36.79
250.0,0.0,0.0,0.0,37.81,-15.2,16.87,-2.67,-3.13,0.04
250.0,0.0,0.0,0.0,37.81,-15.2,16.87,-2.67,-3.13,0.04
250.0,0.0,0.0,0.0,37.81,-15.2,16.87,-2.67,-3.13,0.04
250.0,0.0,-0.0,0.0,37.81,-15.21,16.88,-2.67,-3.13,0.04
250.0,0.0,-0.0,0.0,37.81,-15.21,16.88,-2.19,-3.45,36.79
250.0,0.0,-0.0,0.0,37.81,-15.21,16.88,-2.67,-3.13,0.04
250.0,0.0,-0.0,0.0,37.81,-15.21,16.88,-2.67,-3.13,0.04
250.0,0.0,-0.0,0.0,37.81,-15.21,16.88,-2.67,-3.13,0.04
250.0,0.0,0.0,0.0,37.81,-15.21,16.9,-2.67,-3.13,0.04
250.0,0.0,0.0,0.0,37.81,-15.21,16.9,-2.19,-3.45,36.79
250.0,0.0,0.0,0.0,37.81,-15.21,16.9,-2.67,-3.13,0.04
250.0,0.0,0.0,0.0,37.81,-15.21,16.9,-2.67,-3.13,0.04
250.0,0.0,0.0,0.0,37.81,-15.21,16.9,-2.67,-3.13,0.04
250.0,-0.0,-0.0,0.0,37.79,-15.22,16.91,-2.67,-3.13,0.04
250.0,-0.0,-0.0,0.0,37.79,-15.22,16.91,-2.19,-3.45,36.79
250.0,-0.0,-0.0,0.0,37.79,-15.22,16.91,-2.67,-3.13,0.04
250.0,-0.0,-0.0,0.0,37.79,-15.22,16.91,-2.67,-3.13,0.04
250.0,-0.0,-0.0,0.0,37.79,-15.22,16.91,-2.67,-3.13,0.04
250.0,0.01,0.0,0.0,37.84,-15.22,16.91,-2.67,-3.13,0.04
250.0,0.01,0.0,0.0,37.84,-15.22,16.91,-2.19,-3.45,36.79
250.0,0.01,0.0,0.0,37.84,-15.22,16.91,-2.67,-3.13,0.04
250.0,0.01,0.0,0.0,37.84,-15.22,16.91,-2.67,-3.13,0.04
250.0,0.01,0.0,0.0,37.84,-15.22,16.91,-2.67,-3.13,0.04
250.0,0.01,-0.0,0.0,37.88,-15.23,16.93,-2.67,-3.13,0.04
250.0,0.01,-0.0,0.0,37.88,-15.23,16.93,-2.19,-3.45,36.79
250.0,0.01,-0.0,0.0,37.88,-15.23,16.93,-2.67,-3.13,0.04
250.0,0.01,-0.0,0.0,37.88,-15.23,16.93,-2.67,-3.13,0.04
250.0,0.01,-0.0,-0.0,37.91,-15.24,16.91,-2.67,-3.13,0.04
250.0,0.01,-0.0,-0.0,37.91,-15.24,16.91,-2.19,-3.45,36.79
250.0,0.01,-0.0,-0.0,37.91,-15.24,16.91,-2.67,-3.13,0.04
250.0,0.01,-0.0,-0.0,37.91,-15.24,16.91,-2.67,-3.13,0.04
250.0,0.01,-0.0,-0.0,37.91,-15.24,16.91,-2.67,-3.13,0.04
250.0,-0.0,0.0,0.0,37.9,-15.24,16.94,-2.67,-3.13,0.04
250.0,-0.0,0.0,0.0,37.9,-15.24,16.94,-2.19,-3.45,36.79
250.0,-0.0,0.0,0.0,37.9,-15.24,16.94,-2.67,-3.13,0.04
250.0,-0.0,0.0,0.0,37.9,-15.24,16.94,-2.67,-3.13,0.04
250.0,-0.0,0.0,0.0,37.9,-15.24,16.94,-2.67,-3.13,0.04
251.0,0.0,-0.0,0.0,37.92,-15.26,16.95,-2.67,-3.13,0.04
251.0,0.0,-0.0,0.0,37.92,-15.26,16.95,-2.19,-3.45,36.79
251.0,0.0,-0.0,0.0,37.92,-15.26,16.95,-2.67,-3.13,0.04
251.0,0.0,-0.0,0.0,37.92,-15.26,16.95,-2.67,-3.13,0.04
251.0,0.0,-0.0,0.0,37.92,-15.26,16.95,-2.67,-3.13,0.04
251.0,0.0,-0.0,0.0,37.92,-15.26,16.95,-2.67,-3.13,0.04
251.0,0.0,-0.0,0.0,37.95,-15.28,16.95,-2.67,-3.13,0.04
251.0,0.0,-0.0,0.0,37.95,-15.28,16.95,-2.19,-3.45,36.79
251.0,0.0,-0.0,0.0,37.95,-15.28,16.95,-2.19,-3.45,36.79
251.0,0.0,-0.0,0.0,37.95,-15.28,16.95,-2.19,-3.45,36.79
251.0,0.0,-0.0,0.0,37.95,-15.28,16.95,-2.67,-3.13,0.04
251.0,0.0,-0.0,0.0,37.96,-15.31,16.96,-2.67,-3.13,0.04
251.0,0.0,-0.0,0.0,37.96,-15.31,16.96,-2.19,-3.45,36.79
251.0,0.0,-0.0,0.0,37.96,-15.31,16.96,-2.19,-3.45,36.79
251.0,0.0,-0.0,0.0,37.96,-15.31,16.96,-2.19,-3.45,36.79
251.0,0.0,-0.0,0.0,37.96,-15.31,16.96,-2.67,-3.13,0.04
251.0,0.0,-0.0,0.0,37.97,-15.32,16.97,-2.67,-3.13,0.04
251.0,0.0,-0.0,0.0,37.97,-15.32,16.97,-2.19,-3.45,36.79
251.0,0.0,-0.0,0.0,37.97,-15.32,16.97,-2.19,-3.45,36.79
251.0,0.0,-0.0,0.0,37.97,-15.32,16.97,-2.19,-3.45,36.79
251.0,0.0,-0.0,0.0,37.97,-15.32,16.97,-2.67,-3.13,0.04
251.0,0.0,-0.0,0.0,37.98,-15.33,16.98,-2.67,-3.13,0.04
251.0,0.0,-0.0,0.0,37.98,-15.33,16.98,-2.19,-3.45,36.79
251.0,0.0,-0.0,0.0,37.98,-15.33,16.98,-2.19,-3.45,36.79
251.0,0.0,-0.0,0.0,37.98,-15.33,16.98,-2.19,-3.45,36.79
251.0,0.0,-0.0,0.0,37.98,-15.33,16.98,-2.67,-3.13,0.04
251.0,0.0,-0.0,0.0,38.01,-15.34,17.01,-2.67,-3.13,0.04
251.0,0.0,-0.0,0.0,38.01,-15.34,17.01,-2.19,-3.45,36.79
251.0,0.0,-0.0,0.0,38.01,-15.34,17.01,-2.19,-3.45,36.79
251.0,0.0,-0.0,0.0,38.01,-15.34,17.01,-2.19,-3.45,36.79
251.0,0.0,-0.0,0.0,38.01,-15.34,17.01,-2.67,-3.13,0.04
251.0,-0.0,-0.0,-0.0,37.99,-15.36,16.99,-2.67,-3.13,0.04
251.0,-0.0,-0.0,-0.0,37.99,-15.36,16.99,-2.19,-3.45,36.79
251.0,-0.0,-0.0,-0.0,37.99,-15.36,16.99,-2.19,-3.45,36.79
251.0,-0.0,-0.0,-0.0,37.99,-15.36,16.99,-2.67,-3.13,0.04
251.0,-0.0,-0.0,-0.0,37.99,-15.36,16.99,-2.67,-3.13,0.04
251.0,0.01,-0.0,0.0,38.03,-15.39,17.01,-2.67,-3.13,0.04
251.0,0.01,-0.0,0.0,38.03,-15.39,17.01,-2.19,-3.45,36.79
251.0,0.01,-0.0,0.0,38.03,-15.39,17.01,-2.19,-3.45,36.79
251.0,0.01,-0.0,0.0,38.03,-15.39,17.01,-2.67,-3.13,0.04
251.0,0.01,-0.0,0.0,38.03,-15.39,17.01,-2.67,-3.13,0.04
251.0,-0.0,-0.0,-0.0,38.02,-15.4,16.99,-2.67,-3.13,0.04
251.0,-0.0,-0.0,-0.0,38.02,-15.4,16.99,-2.19,-3.45,36.79
251.0,-0.0,-0.0,-0.0,38.02,-15.4,16.99,-2.19,-3.45,36.79
251.0,-0.0,-0.0,-0.0,38.02,-15.4,16.99,-2.76,-3.18,0.03
251.0,-0.01,0.0,-0.0,37.96,-15.39,16.98,-2.76,-3.18,0.03
251.0,-0.01,0.0,-0.0,37.96,-15.39,16.98,-2.36,-3.51,36.79
252.0,-0.01,0.0,-0.0,37.96,-15.39,16.98,-2.36,-3.51,36.79
252.0,-0.01,0.0,-0.0,37.96,-15.39,16.98,-2.36,-3.51,36.79
252.0,-0.01,0.0,-0.0,37.96,-15.39,16.98,-2.77,-3.12,0.05
252.0,0.01,0.01,0.0,38.01,-15.32,16.98,-2.77,-3.12,0.05
252.0,0.01,0.01,0.0,38.01,-15.32,16.98,-2.28,-3.44,36.81
252.0,0.01,0.01,0.0,38.01,-15.32,16.98,-2.28,-3.44,36.81
252.0,0.01,0.01,0.0,38.01,-15.32,16.98,-2.28,-3.44,36.81
252.0,0.01,0.01,0.0,38.01,-15.32,16.98,-2.75,-3.11,0.06
252.0,0.01,0.0,0.0,38.05,-15.31,16.99,-2.75,-3.11,0.06
252.0,0.01,0.0,0.0,38.05,-15.31,16.99,-2.26,-3.43,36.81
252.0,0.01,0.0,0.0,38.05,-15.31,16.99,-2.26,-3.43,36.81
252.0,0.01,0.0,0.0,38.05,-15.31,16.99,-2.26,-3.43,36.81
252.0,0.01,0.0,0.0,38.05,-15.31,16.99,-2.79,-3.11,0.06
252.0,0.0,-0.0,0.01,38.05,-15.32,17.04,-2.79,-3.11,0.06
252.0,0.0,-0.0,0.01,38.05,-15.32,17.04,-2.38,-3.43,36.83
252.0,0.0,-0.0,0.01,38.05,-15.32,17.04,-2.38,-3.43,36.83
252.0,0.0,-0.0,0.01,38.05,-15.32,17.04,-2.38,-3.43,36.83
252.0,0.0,-0.0,0.01,38.05,-15.32,17.04,-2.66,-3.14,0.07
252.0,0.05,-0.02,-0.01,38.35,-15.44,16.98,-2.66,-3.14,0.07
252.0,0.05,-0.02,-0.01,38.35,-15.44,16.98,-2.06,-3.49,36.79
252.0,0.05,-0.02,-0.01,38.35,-15.44,16.98,-2.06,-3.49,36.79
252.0,0.05,-0.02,-0.01,38.35,-15.44,16.98,-2.06,-3.49,36.79
252.0,0.05,-0.02,-0.01,38.35,-15.44,16.98,-2.42,-5.87,0.11
252.0,0.04,-1.15,-0.03,38.58,-22.09,16.81,-2.42,-5.87,0.11
252.0,0.04,-1.15,-0.03,38.58,-22.09,16.81,-1.97,-8.01,36.85
252.0,0.04,-1.15,-0.03,38.58,-22.09,16.81,-1.97,-8.01,36.85
252.0,0.04,-1.15,-0.03,38.58,-22.09,16.81,-2.24,-9.66,0.15
252.0,0.04,-1.15,-0.03,38.58,-22.09,16.81,-2.24,-9.66,0.15
252.0,-0.04,-0.66,0.01,38.32,-25.86,16.89,-2.24,-9.66,0.15
252.0,-0.04,-0.66,0.01,38.32,-25.86,16.89,-1.91,-10.76,36.88
252.0,-0.04,-0.66,0.01,38.32,-25.86,16.89,-1.91,-10.76,36.88
252.0,-0.04,-0.66,0.01,38.32,-25.86,16.89,-2.27,-13.03,0.25
252.0,-0.04,-0.66,0.01,38.32,-25.86,16.89,-2.27,-13.03,0.25
252.0,-0.0,-0.28,0.0,38.31,-27.46,16.89,-2.27,-13.03,0.25
252.0,-0.0,-0.28,0.0,38.31,-27.46,16.89,-1.88,-13.84,36.95
252.0,-0.0,-0.28,0.0,38.31,-27.46,16.89,-1.88,-13.84,36.95
252.0,-0.0,-0.28,0.0,38.31,-27.46,16.89,-2.27,-14.46,0.34
252.0,-0.0,-0.28,0.0,38.31,-27.46,16.89,-2.27,-14.46,0.34
252.0,0.02,-0.34,-0.01,38.41,-29.42,16.83,-2.27,-14.46,0.34
252.0,0.02,-0.34,-0.01,38.41,-29.42,16.83,-1.89,-15.2,37.01
252.0,0.02,-0.34,-0.01,38.41,-29.42,16.83,-1.89,-15.2,37.01
252.0,0.02,-0.34,-0.01,38.41,-29.42,16.83,-2.18,-16.41,0.34
252.0,0.02,-0.34,-0.01,38.41,-29.42,16.83,-2.18,-16.41,0.34
252.0,0.01,-0.28,-0.01,38.48,-31.14,16.78,-2.18,-16.41,0.34
252.0,0.01,-0.28,-0.01,38.48,-31.14,16.78,-1.82,-17.39,37.01
252.0,0.01,-0.28,-0.01,38.48,-31.14,16.78,-1.82,-17.39,37.01
252.0,0.01,-0.28,-0.01,38.48,-31.14,16.78,-2.11,-17.61,0.35
252.0,0.01,-0.28,-0.01,38.48,-31.14,16.78,-2.11,-17.61,0.35
252.0,0.0,-0.42,-0.0,38.49,-33.57,16.76,-2.11,-17.61,0.35
253.0,0.0,-0.42,-0.0,38.49,-33.57,16.76,-1.81,-18.66,37.03
253.0,0.0,-0.42,-0.0,38.49,-33.57,16.76,-1.81,-18.66,37.03
253.0,0.0,-0.42,-0.0,38.49,-33.57,16.76,-2.11,-19.83,0.4
253.0,0.0,-0.42,-0.0,38.49,-33.57,16.76,-2.11,-19.83,0.4
253.0,0.03,-0.28,-0.0,38.68,-35.33,16.74,-2.11,-19.83,0.4
253.0,0.03,-0.28,-0.0,38.68,-35.33,16.74,-1.77,-21.09,37.08
253.0,0.03,-0.28,-0.0,38.68,-35.33,16.74,-1.77,-21.09,37.08
253.0,0.03,-0.28,-0.0,38.68,-35.33,16.74,-2.04,-21.59,0.42
253.0,0.03,-0.28,-0.0,38.68,-35.33,16.74,-2.04,-21.59,0.42
253.0,0.0,-0.36,-0.01,38.68,-37.4,16.69,-2.04,-21.59,0.42
253.0,0.0,-0.36,-0.01,38.68,-37.4,16.69,-1.74,-22.77,37.09
253.0,0.0,-0.36,-0.01,38.68,-37.4,16.69,-2.04,-23.51,0.46
253.0,0.0,-0.36,-0.01,38.68,-37.4,16.69,-2.04,-23.51,0.46
253.0,-0.01,-0.37,0.0,38.65,-39.69,16.72,-2.04,-23.51,0.46
253.0,-0.01,-0.37,0.0,38.65,-39.69,16.72,-1.77,-24.41,37.17
253.0,-0.01,-0.37,0.0,38.65,-39.69,16.72,-1.77,-24.41,37.17
253.0,-0.01,-0.37,0.0,38.65,-39.69,16.72,-2.08,-26.56,0.58
253.0,-0.01,0.0,0.01,38.61,-39.68,16.75,-2.08,-26.56,0.58
253.0,-0.01,0.0,0.01,38.61,-39.68,16.75,-1.73,-27.11,37.22
253.0,-0.01,0.0,0.01,38.61,-39.68,16.75,-1.73,-27.11,37.22
253.0,-0.01,0.0,0.01,38.61,-39.68,16.75,-1.73,-27.11,37.22
253.0,-0.01,0.0,0.01,38.61,-39.68,16.75,-1.93,-27.0,0.59
253.0,0.01,-0.0,0.0,38.66,-39.7,16.76,-1.93,-27.0,0.59
253.0,0.01,-0.0,0.0,38.66,-39.7,16.76,-1.76,-27.15,37.23
253.0,0.01,-0.0,0.0,38.66,-39.7,16.76,-1.76,-27.15,37.23
253.0,0.01,-0.0,0.0,38.66,-39.7,16.76,-1.76,-27.15,37.23
253.0,0.01,-0.0,0.0,38.66,-39.7,16.76,-1.93,-27.03,0.59
253.0,0.02,0.0,-0.0,38.76,-39.68,16.75,-1.93,-27.03,0.59
253.0,0.02,0.0,-0.0,38.76,-39.68,16.75,-1.69,-27.15,37.23
253.0,0.02,0.0,-0.0,38.76,-39.68,16.75,-1.69,-27.15,37.23
253.0,0.02,0.0,-0.0,38.76,-39.68,16.75,-1.69,-27.15,37.23
253.0,0.02,0.0,-0.0,38.76,-39.68,16.75,-1.86,-27.03,0.58
253.0,0.02,0.0,-0.0,38.76,-39.68,16.75,-1.86,-27.03,0.58
253.0,0.0,-0.0,0.0,38.79,-39.7,16.76,-1.86,-27.03,0.58
253.0,0.0,-0.0,0.0,38.79,-39.7,16.76,-1.67,-27.15,37.22
253.0,0.0,-0.0,0.0,38.79,-39.7,16.76,-1.87,-27.03,0.58
253.0,0.0,-0.0,0.0,38.79,-39.7,16.76,-1.87,-27.03,0.58
253.0,0.0,-0.0,0.0,38.79,-39.7,16.76,-1.87,-27.03,0.58
253.0,-0.0,-0.0,0.0,38.76,-39.71,16.77,-1.87,-27.03,0.58
253.0,-0.0,-0.0,0.0,38.76,-39.71,16.77,-1.67,-27.15,37.23
253.0,-0.0,-0.0,0.0,38.76,-39.71,16.77,-1.87,-27.03,0.58
253.0,-0.0,-0.0,0.0,38.76,-39.71,16.77,-1.87,-27.03,0.58
253.0,-0.0,-0.0,0.0,38.76,-39.71,16.77,-1.87,-27.03,0.58
253.0,0.01,0.0,0.0,38.8,-39.7,16.8,-1.87,-27.03,0.58
253.0,0.01,0.0,0.0,38.8,-39.7,16.8,-1.66,-27.15,37.22
253.0,0.01,0.0,0.0,38.8,-39.7,16.8,-1.85,-27.03,0.57
254.0,0.01,0.0,0.0,38.8,-39.7,16.8,-1.85,-27.03,0.57
254.0,0.01,0.0,0.0,38.8,-39.7,16.8,-1.85,-27.03,0.57
254.0,0.01,0.0,0.0,38.8,-39.7,16.8,-1.8,-27.03,0.56
254.0,0.01,-0.0,0.0,38.85,-39.71,16.81,-1.8,-27.03,0.56
254.0,0.01,-0.0,0.0,38.85,-39.71,16.81,-1.59,-27.28,37.2
254.0,0.01,-0.0,0.0,38.85,-39.71,16.81,-1.59,-27.28,37.2
254.0,0.01,-0.0,0.0,38.85,-39.71,16.81,-1.59,-27.28,37.2
254.0,0.01,-0.0,0.0,38.85,-39.71,16.81,-1.83,-27.02,0.57
254.0,0.0,0.0,0.0,38.88,-39.7,16.82,-1.83,-27.02,0.57
254.0,0.0,0.0,0.0,38.88,-39.7,16.82,-1.63,-27.22,37.23
254.0,0.0,0.0,0.0,38.88,-39.7,16.82,-1.63,-27.22,37.23
254.0,0.0,0.0,0.0,38.88,-39.7,16.82,-1.63,-27.22,37.23
254.0,0.0,0.0,0.0,38.88,-39.7,16.82,-1.86,-27.01,0.58
254.0,-0.01,0.0,0.01,38.78,-39.69,16.88,-1.86,-27.01,0.58
254.0,-0.01,0.0,0.01,38.78,-39.69,16.88,-1.71,-27.2,37.26
254.0,-0.01,0.0,0.01,38.78,-39.69,16.88,-1.71,-27.2,37.26
254.0,-0.01,0.0,0.01,38.78,-39.69,16.88,-1.71,-27.2,37.26
254.0,-0.01,0.0,0.01,38.78,-39.69,16.88,-1.9,-27.0,0.61
254.0,0.01,-0.0,-0.01,38.83,-39.71,16.84,-1.9,-27.0,0.61
254.0,0.01,-0.0,-0.01,38.83,-39.71,16.84,-1.7,-27.2,37.26
254.0,0.01,-0.0,-0.01,38.83,-39.71,16.84,-1.7,-27.2,37.26
254.0,0.01,-0.0,-0.01,38.83,-39.71,16.84,-1.85,-27.01,0.57
254.0,0.01,-0.0,-0.01,38.83,-39.71,16.84,-1.85,-27.01,0.57
254.0,0.0,-0.0,0.0,38.86,-39.72,16.84,-1.85,-27.01,0.57
254.0,0.0,-0.0,0.0,38.86,-39.72,16.84,-1.65,-27.21,37.22
254.0,0.0,-0.0,0.0,38.86,-39.72,16.84,-1.65,-27.21,37.22
254.0,0.0,-0.0,0.0,38.86,-39.72,16.84,-1.83,-27.01,0.54
254.0,0.0,-0.0,0.0,38.86,-39.72,16.84,-1.83,-27.01,0.54
254.0,0.01,0.0,0.0,38.89,-39.71,16.85,-1.83,-27.01,0.54
254.0,0.01,0.0,0.0,38.89,-39.71,16.85,-1.66,-27.05,37.23
254.0,0.01,0.0,0.0,38.89,-39.71,16.85,-1.66,-27.05,37.23
254.0,0.01,0.0,0.0,38.89,-39.71,16.85,-1.8,-27.02,0.54
254.0,0.01,0.0,0.0,38.89,-39.71,16.85,-1.8,-27.02,0.54
254.0,-0.0,0.0,0.0,38.87,-39.71,16.87,-1.8,-27.02,0.54
254.0,-0.0,0.0,0.0,38.87,-39.71,16.87,-1.65,-27.06,37.22
254.0,-0.0,0.0,0.0,38.87,-39.71,16.87,-1.65,-27.06,37.22
254.0,-0.0,0.0,0.0,38.87,-39.71,16.87,-1.81,-27.01,0.54
254.0,-0.0,0.0,0.0,38.87,-39.71,16.87,-1.81,-27.01,0.54
254.0,-0.01,-0.0,0.01,38.83,-39.72,16.91,-1.81,-27.01,0.54
254.0,-0.01,-0.0,0.01,38.83,-39.72,16.91,-1.66,-27.05,37.23
254.0,-0.01,-0.0,0.01,38.83,-39.72,16.91,-1.66,-27.05,37.23
254.0,-0.01,-0.0,0.01,38.83,-39.72,16.91,-1.87,-27.0,0.58
254.0,-0.01,-0.0,0.01,38.83,-39.72,16.91,-1.87,-27.0,0.58
254.0,0.01,0.0,-0.0,38.88,-39.72,16.9,-1.87,-27.0,0.58
254.0,0.01,0.0,-0.0,38.88,-39.72,16.9,-1.7,-27.05,37.26
254.0,0.01,0.0,-0.0,38.88,-39.72,16.9,-1.7,-27.05,37.26
254.0,0.01,0.0,-0.0,38.88,-39.72,16.9,-1.86,-27.0,0.57
255.0,0.01,0.0,-0.0,38.88,-39.72,16.9,-1.86,-27.0,0.57
255.0,0.0,-0.0,0.0,38.9,-39.73,16.91,-1.86,-27.0,0.57
255.0,0.0,-0.0,0.0,38.9,-39.73,16.91,-1.72,-27.04,37.26
255.0,0.0,-0.0,0.0,38.9,-39.73,16.91,-1.72,-27.04,37.26
255.0,0.0,-0.0,0.0,38.9,-39.73,16.91,-1.87,-27.0,0.56
255.0,0.0,-0.0,0.0,38.9,-39.73,16.91,-1.87,-27.0,0.56
255.0,0.01,-0.0,-0.0,38.98,-39.76,16.9,-1.87,-27.0,0.56
255.0,0.01,-0.0,-0.0,38.98,-39.76,16.9,-1.65,-27.06,37.23
255.0,0.01,-0.0,-0.0,38.98,-39.76,16.9,-1.65,-27.06,37.23
255.0,0.01,-0.0,-0.0,38.98,-39.76,16.9,-1.83,-27.02,0.56
255.0,0.01,-0.0,-0.0,38.98,-39.76,16.9,-1.83,-27.02,0.56
255.0,0.01,-0.01,-0.0,39.02,-39.79,16.88,-1.83,-27.02,0.56
255.0,0.01,-0.01,-0.0,39.02,-39.79,16.88,-1.63,-27.09,37.23
255.0,0.01,-0.01,-0.0,39.02,-39.79,16.88,-1.63,-27.09,37.23
255.0,0.01,-0.01,-0.0,39.02,-39.79,16.88,-1.8,-27.05,0.55
255.0,0.01,-0.01,-0.0,39.02,-39.79,16.88,-1.8,-27.05,0.55
255.0,0.02,0.0,-0.0,39.15,-39.79,16.86,-1.8,-27.05,0.55
255.0,0.02,0.0,-0.0,39.15,-39.79,16.86,-1.58,-27.1,37.23
255.0,0.02,0.0,-0.0,39.15,-39.79,16.86,-1.58,-27.1,37.23
255.0,0.02,0.0,-0.0,39.15,-39.79,16.86,-1.71,-27.06,0.55
255.0,0.02,0.0,-0.0,39.15,-39.79,16.86,-1.71,-27.06,0.55
255.0,0.07,-0.64,-0.03,39.6,-43.78,16.65,-1.71,-27.06,0.55
255.0,0.07,-0.64,-0.03,39.6,-43.78,16.65,-1.64,-30.37,37.3
255.0,0.07,-0.64,-0.03,39.6,-43.78,16.65,-1.69,-31.0,0.62
255.0,0.07,-0.64,-0.03,39.6,-43.78,16.65,-1.69,-31.0,0.62
255.0,-0.02,-0.03,0.0,39.49,-43.94,16.66,-1.69,-31.0,0.62
255.0,-0.02,-0.03,0.0,39.49,-43.94,16.66,-1.61,-30.88,37.3
255.0,-0.02,-0.03,0.0,39.49,-43.94,16.66,-1.79,-31.07,0.66
255.0,-0.02,-0.03,0.0,39.49,-43.94,16.66,-1.79,-31.07,0.66
255.0,-0.02,-0.03,0.0,39.49,-43.94,16.66,-1.79,-31.07,0.66
255.0,0.01,0.0,-0.0,39.55,-43.93,16.65,-1.79,-31.07,0.66
255.0,0.01,0.0,-0.0,39.55,-43.93,16.65,-1.65,-30.9,37.31
255.0,0.01,0.0,-0.0,39.55,-43.93,16.65,-1.8,-31.08,0.66
255.0,0.01,0.0,-0.0,39.55,-43.93,16.65,-1.8,-31.08,0.66
255.0,0.01,0.0,-0.0,39.55,-43.93,16.65,-1.8,-31.08,0.66
255.0,0.01,-0.0,0.0,39.59,-43.94,16.68,-1.8,-31.08,0.66
255.0,0.01,-0.0,0.0,39.59,-43.94,16.68,-1.59,-30.91,37.31
255.0,0.01,-0.0,0.0,39.59,-43.94,16.68,-1.75,-31.09,0.66
255.0,0.01,-0.0,0.0,39.59,-43.94,16.68,-1.75,-31.09,0.66
255.0,0.01,-0.0,0.0,39.59,-43.94,16.68,-1.75,-31.09,0.66
255.0,0.01,-0.0,0.0,39.59,-43.94,16.68,-1.68,-31.1,0.64
255.0,0.01,-0.0,0.0,39.59,-43.94,16.68,-1.68,-31.1,0.64
255.0,0.0,-0.0,0.0,39.62,-43.96,16.71,-1.68,-31.1,0.64
255.0,0.0,-0.0,0.0,39.62,-43.96,16.71,-1.52,-30.92,37.3
255.0,0.0,-0.0,0.0,39.62,-43.96,16.71,-1.52,-30.92,37.3
255.0,0.0,-0.0,0.0,39.62,-43.96,16.71,-1.67,-31.1,0.64
255.0,0.0,-0.0,0.0,39.62,-43.96,16.71,-1.67,-31.1,0.64
256.0,0.0,-0.0,-0.0,39.64,-43.97,16.69,-1.67,-31.1,0.64
256.0,0.0,-0.0,-0.0,39.64,-43.97,16.69,-1.49,-30.92,37.29
256.0,0.0,-0.0,-0.0,39.64,-43.97,16.69,-1.65,-31.11,0.64
256.0,0.0,-0.0,-0.0,39.64,-43.97,16.69,-1.65,-31.11,0.64
256.0,0.0,-0.0,-0.0,39.64,-43.97,16.69,-1.65,-31.11,0.64
256.0,0.01,-0.01,-0.0,39.69,-44.01,16.67,-1.65,-31.11,0.64
256.0,0.01,-0.01,-0.0,39.69,-44.01,16.67,-1.44,-30.93,37.27
256.0,0.01,-0.01,-0.0,39.69,-44.01,16.67,-1.61,-31.12,0.62
256.0,0.01,-0.01,-0.0,39.69,-44.01,16.67,-1.61,-31.12,0.62
256.0,0.01,-0.01,-0.0,39.69,-44.01,16.67,-1.61,-31.12,0.62
256.0,0.01,-0.0,0.0,39.72,-44.02,16.68,-1.61,-31.12,0.62
256.0,0.01,-0.0,0.0,39.72,-44.02,16.68,-1.42,-30.95,37.26
256.0,0.01,-0.0,0.0,39.72,-44.02,16.68,-1.6,-31.12,0.63
256.0,0.01,-0.0,0.0,39.72,-44.02,16.68,-1.6,-31.12,0.63
256.0,0.01,-0.0,0.0,39.72,-44.02,16.68,-1.6,-31.12,0.63
256.0,0.0,-0.0,0.0,39.72,-44.03,16.68,-1.6,-31.12,0.63
256.0,0.0,-0.0,0.0,39.72,-44.03,16.68,-1.4,-30.95,37.26
256.0,0.0,-0.0,0.0,39.72,-44.03,16.68,-1.59,-31.12,0.62
256.0,0.0,-0.0,0.0,39.72,-44.03,16.68,-1.59,-31.12,0.62
256.0,0.0,-0.0,0.0,39.72,-44.03,16.68,-1.59,-31.12,0.62
256.0,-0.01,0.0,0.0,39.69,-44.02,16.71,-1.59,-31.12,0.62
256.0,-0.01,0.0,0.0,39.69,-44.02,16.71,-1.45,-30.94,37.28
256.0,-0.01,0.0,0.0,39.69,-44.02,16.71,-1.64,-31.11,0.64
256.0,-0.01,0.0,0.0,39.69,-44.02,16.71,-1.64,-31.11,0.64
256.0,-0.01,0.0,0.0,39.69,-44.02,16.71,-1.64,-31.11,0.64
256.0,-0.0,0.0,0.0,39.68,-44.02,16.73,-1.64,-31.11,0.64
256.0,-0.0,0.0,0.0,39.68,-44.02,16.73,-1.51,-30.91,37.32
256.0,-0.0,0.0,0.0,39.68,-44.02,16.73,-1.69,-31.09,0.67
256.0,-0.0,0.0,0.0,39.68,-44.02,16.73,-1.69,-31.09,0.67
256.0,-0.0,0.0,0.0,39.68,-44.02,16.73,-1.78,-31.07,0.71
256.0,-0.0,0.0,0.0,39.68,-44.02,16.73,-1.78,-31.07,0.71
256.0,-0.0,0.0,0.0,39.68,-44.02,16.73,-1.78,-31.07,0.71
256.0,-0.02,0.0,0.01,39.53,-43.99,16.81,-1.78,-31.07,0.71
256.0,-0.02,0.0,0.01,39.53,-43.99,16.81,-1.64,-30.88,37.38
256.0,-0.02,0.0,0.01,39.53,-43.99,16.81,-2.15,-31.02,0.87
256.0,-0.02,0.0,0.01,39.53,-43.99,16.81,-2.15,-31.02,0.87
256.0,-0.02,0.0,0.01,39.53,-43.99,16.81,-2.15,-31.02,0.87
256.0,0.01,-0.0,-0.01,39.61,-44.0,16.76,-2.15,-31.02,0.87
256.0,0.01,-0.0,-0.01,39.61,-44.0,16.76,-1.97,-30.85,37.52
256.0,0.01,-0.0,-0.01,39.61,-44.0,16.76,-2.2,-30.94,0.87
256.0,0.01,-0.0,-0.01,39.61,-44.0,16.76,-2.2,-30.94,0.87
256.0,0.01,-0.0,-0.01,39.61,-44.0,16.76,-2.2,-30.94,0.87
256.0,-0.03,0.0,0.01,39.45,-43.99,16.83,-2.2,-30.94,0.87
256.0,-0.03,0.0,0.01,39.45,-43.99,16.83,-1.99,-30.85,37.47
256.0,-0.03,0.0,0.01,39.45,-43.99,16.83,-2.35,-30.93,0.9
256.0,-0.03,0.0,0.01,39.45,-43.99,16.83,-2.35,-30.93,0.9
257.0,-0.01,-0.0,-0.0,39.42,-44.0,16.82,-2.35,-30.93,0.9
257.0,-0.01,-0.0,-0.0,39.42,-44.0,16.82,-2.14,-30.84,37.5
257.0,-0.01,-0.0,-0.0,39.42,-44.0,16.82,-2.14,-30.84,37.5
257.0,-0.01,-0.0,-0.0,39.42,-44.0,16.82,-2.43,-30.93,0.9
257.0,-0.01,-0.0,-0.0,39.42,-44.0,16.82,-2.43,-30.93,0.9
257.0,-0.01,0.0,0.01,39.36,-43.99,16.86,-2.43,-30.93,0.9
257.0,-0.01,0.0,0.01,39.36,-43.99,16.86,-2.18,-30.82,37.51
257.0,-0.01,0.0,0.01,39.36,-43.99,16.86,-2.18,-30.82,37.51
257.0,-0.01,0.0,0.01,39.36,-43.99,16.86,-2.49,-30.91,0.94
257.0,-0.01,0.0,0.01,39.36,-43.99,16.86,-2.49,-30.91,0.94
257.0,0.01,-0.0,-0.01,39.39,-44.0,16.82,-2.49,-30.91,0.94
257.0,0.01,-0.0,-0.01,39.39,-44.0,16.82,-2.23,-30.81,37.52
257.0,0.01,-0.0,-0.01,39.39,-44.0,16.82,-2.23,-30.81,37.52
257.0,0.01,-0.0,-0.01,39.39,-44.0,16.82,-2.49,-30.91,0.91
257.0,0.01,-0.0,-0.01,39.39,-44.0,16.82,-2.49,-30.91,0.91
257.0,0.01,-0.0,0.0,39.43,-44.01,16.83,-2.49,-30.91,0.91
257.0,0.01,-0.0,0.0,39.43,-44.01,16.83,-2.2,-30.82,37.49
257.0,0.01,-0.0,0.0,39.43,-44.01,16.83,-2.2,-30.82,37.49
257.0,0.01,-0.0,0.0,39.43,-44.01,16.83,-2.49,-30.91,0.9
257.0,0.01,-0.0,0.0,39.43,-44.01,16.83,-2.49,-30.91,0.9
257.0,-0.01,-0.01,-0.0,39.38,-44.05,16.82,-2.49,-30.91,0.9
257.0,-0.01,-0.01,-0.0,39.38,-44.05,16.82,-2.23,-30.82,37.51
257.0,-0.01,-0.01,-0.0,39.38,-44.05,16.82,-2.23,-30.82,37.51
257.0,-0.01,-0.01,-0.0,39.38,-44.05,16.82,-2.47,-30.92,0.88
257.0,-0.01,-0.01,-0.0,39.38,-44.05,16.82,-2.47,-30.92,0.88
257.0,-0.01,-0.02,0.0,39.32,-44.17,16.82,-2.47,-30.92,0.88
257.0,-0.01,-0.02,0.0,39.32,-44.17,16.82,-2.04,-30.88,37.44
257.0,-0.01,-0.02,0.0,39.32,-44.17,16.82,-2.3,-30.98,0.83
257.0,-0.01,-0.02,0.0,39.32,-44.17,16.82,-2.3,-30.98,0.83
257.0,-0.01,-0.02,0.0,39.32,-44.17,16.82,-2.3,-30.98,0.83
257.0,0.01,-0.03,-0.0,39.37,-44.34,16.8,-2.3,-30.98,0.83
257.0,0.01,-0.03,-0.0,39.37,-44.34,16.8,-1.82,-31.04,37.37
257.0,0.01,-0.03,-0.0,39.37,-44.34,16.8,-2.06,-31.11,0.76
257.0,0.01,-0.03,-0.0,39.37,-44.34,16.8,-2.06,-31.11,0.76
257.0,0.01,-0.03,-0.0,39.37,-44.34,16.8,-2.06,-31.11,0.76
257.0,0.13,-1.3,-0.03,40.09,-51.79,16.61,-2.06,-31.11,0.76
257.0,0.13,-1.3,-0.03,40.09,-51.79,16.61,-2.13,-41.43,37.65
257.0,0.13,-1.3,-0.03,40.09,-51.79,16.61,-2.37,-43.4,1.18
257.0,0.13,-1.3,-0.03,40.09,-51.79,16.61,-2.37,-43.4,1.18
257.0,0.13,-1.3,-0.03,40.09,-51.79,16.61,-2.37,-43.4,1.18
257.0,0.01,-0.2,0.01,40.12,-52.95,16.64,-2.37,-43.4,1.18
257.0,0.01,-0.2,0.01,40.12,-52.95,16.64,-2.1,-46.13,37.88
257.0,0.01,-0.2,0.01,40.12,-52.95,16.64,-2.5,-46.48,1.41
257.0,0.01,-0.2,0.01,40.12,-52.95,16.64,-2.5,-46.48,1.41
257.0,0.01,-0.2,0.01,40.12,-52.95,16.64,-2.5,-46.48,1.41
257.0,-0.05,-1.29,-0.03,39.84,-60.36,16.5,-2.5,-46.48,1.41
257.0,-0.05,-1.29,-0.03,39.84,-60.36,16.5,-2.35,-48.14,38.06
257.0,-0.05,-1.29,-0.03,39.84,-60.36,16.5,-2.58,-49.49,1.55
257.0,-0.05,-1.29,-0.03,39.84,-60.36,16.5,-2.58,-49.49,1.55
258.0,-0.05,-1.29,-0.03,39.84,-60.36,16.5,-2.58,-49.49,1.55
258.0,-0.03,-1.12,-0.03,39.66,-66.8,16.32,-2.58,-49.49,1.55
258.0,-0.03,-1.12,-0.03,39.66,-66.8,16.32,-2.37,-51.2,38.15
258.0,-0.03,-1.12,-0.03,39.66,-66.8,16.32,-2.57,-52.04,1.65
258.0,-0.03,-1.12,-0.03,39.66,-66.8,16.32,-2.57,-52.04,1.65
258.0,-0.03,-1.12,-0.03,39.66,-66.8,16.32,-2.57,-52.04,1.65
258.0,0.04,0.01,-0.03,39.92,-66.77,16.16,-2.57,-52.04,1.65
258.0,0.04,0.01,-0.03,39.92,-66.77,16.16,-2.4,-52.28,38.24
258.0,0.04,0.01,-0.03,39.92,-66.77,16.16,-2.58,-52.04,1.71
258.0,0.04,0.01,-0.03,39.92,-66.77,16.16,-2.58,-52.04,1.71
258.0,0.04,0.01,-0.03,39.92,-66.77,16.16,-2.58,-52.04,1.71
258.0,0.02,-0.01,0.01,40.06,-66.81,16.21,-2.58,-52.04,1.71
258.0,0.02,-0.01,0.01,40.06,-66.81,16.21,-2.34,-52.34,38.23
258.0,0.02,-0.01,0.01,40.06,-66.81,16.21,-2.57,-52.11,1.74
258.0,0.02,-0.01,0.01,40.06,-66.81,16.21,-2.57,-52.11,1.74
258.0,0.02,-0.01,0.01,40.06,-66.81,16.21,-2.57,-52.11,1.74
258.0,-0.0,0.11,0.07,40.03,-66.1,16.68,-2.57,-52.11,1.74
258.0,-0.0,0.11,0.07,40.03,-66.1,16.68,-2.26,-54.96,38.36
258.0,-0.0,0.11,0.07,40.03,-66.1,16.68,-2.54,-55.05,1.96
258.0,-0.0,0.11,0.07,40.03,-66.1,16.68,-2.54,-55.05,1.96
258.0,0.0,-0.02,0.03,40.03,-66.21,16.85,-2.54,-55.05,1.96
258.0,0.0,-0.02,0.03,40.03,-66.21,16.85,-2.11,-55.17,38.28
258.0,0.0,-0.02,0.03,40.03,-66.21,16.85,-2.28,-55.12,1.83
258.0,0.0,-0.02,0.03,40.03,-66.21,16.85,-2.28,-55.12,1.83
258.0,0.0,-0.02,0.03,40.03,-66.21,16.85,-2.28,-55.12,1.83
258.0,0.0,-0.02,0.03,40.03,-66.21,16.85,-2.36,-58.05,1.96
258.0,0.15,-2.33,0.02,41.05,-82.33,17.0,-2.36,-58.05,1.96
258.0,0.15,-2.33,0.02,41.05,-82.33,17.0,-2.06,-59.15,38.54
258.0,0.15,-2.33,0.02,41.05,-82.33,17.0,-2.06,-59.15,38.54
258.0,0.15,-2.33,0.02,41.05,-82.33,17.0,-2.06,-59.15,38.54
258.0,0.15,-2.33,0.02,41.05,-82.33,17.0,-2.0,-61.04,2.22
258.0,0.05,-0.02,-0.03,41.34,-82.45,16.82,-2.0,-61.04,2.22
258.0,0.05,-0.02,-0.03,41.34,-82.45,16.82,-1.5,-60.93,38.59
258.0,0.05,-0.02,-0.03,41.34,-82.45,16.82,-1.5,-60.93,38.59
258.0,0.05,-0.02,-0.03,41.34,-82.45,16.82,-1.5,-60.93,38.59
258.0,0.05,-0.02,-0.03,41.34,-82.45,16.82,-1.56,-61.24,2.56
258.0,0.38,-0.08,0.06,43.52,-82.91,17.16,-1.56,-61.24,2.56
258.0,0.38,-0.08,0.06,43.52,-82.91,17.16,-1.14,-61.27,39.23
258.0,0.38,-0.08,0.06,43.52,-82.91,17.16,-1.14,-61.27,39.23
258.0,0.38,-0.08,0.06,43.52,-82.91,17.16,-1.14,-61.27,39.23
258.0,0.38,-0.08,0.06,43.52,-82.91,17.16,1.11,-62.19,2.72
258.0,0.62,-0.23,-0.08,47.38,-84.37,16.66,1.11,-62.19,2.72
258.0,0.62,-0.23,-0.08,47.38,-84.37,16.66,1.98,-62.83,39.24
258.0,0.62,-0.23,-0.08,47.38,-84.37,16.66,1.98,-62.83,39.24
258.0,0.62,-0.23,-0.08,47.38,-84.37,16.66,1.98,-62.83,39.24
258.0,0.62,-0.23,-0.08,47.38,-84.37,16.66,2.06,-62.21,2.82
258.0,-0.07,0.06,0.08,46.96,-84.02,17.16,2.06,-62.21,2.82
259.0,-0.07,0.06,0.08,46.96,-84.02,17.16,1.84,-62.48,39.75
259.0,-0.07,0.06,0.08,46.96,-84.02,17.16,1.84,-62.48,39.75
259.0,-0.07,0.06,0.08,46.96,-84.02,17.16,1.84,-62.48,39.75
259.0,-0.07,0.06,0.08,46.96,-84.02,17.16,0.7,-61.78,3.86
259.0,-0.07,0.06,0.08,46.96,-84.02,17.16,0.7,-61.78,3.86
259.0,-0.11,0.11,0.12,46.21,-83.24,18.01,0.7,-61.78,3.86
259.0,-0.11,0.11,0.12,46.21,-83.24,18.01,0.25,-61.99,41.04
259.0,-0.11,0.11,0.12,46.21,-83.24,18.01,0.25,-61.99,41.04
259.0,-0.11,0.11,0.12,46.21,-83.24,18.01,-1.05,-61.19,5.24
259.0,-0.11,0.11,0.12,46.21,-83.24,18.01,-1.05,-61.19,5.24
259.0,-0.01,-0.03,0.05,46.13,-83.39,18.31,-1.05,-61.19,5.24
259.0,-0.01,-0.03,0.05,46.13,-83.39,18.31,-1.43,-61.46,42.41
259.0,-0.01,-0.03,0.05,46.13,-83.39,18.31,-1.43,-61.46,42.41
259.0,-0.01,-0.03,0.05,46.13,-83.39,18.31,-1.86,-61.06,5.94
259.0,-0.01,-0.03,0.05,46.13,-83.39,18.31,-1.86,-61.06,5.94
259.0,-0.0,0.01,0.01,46.12,-83.34,18.37,-1.86,-61.06,5.94
259.0,-0.0,0.01,0.01,46.12,-83.34,18.37,-1.63,-61.44,42.6
259.0,-0.0,0.01,0.01,46.12,-83.34,18.37,-1.91,-61.01,6.02
259.0,-0.0,0.01,0.01,46.12,-83.34,18.37,-1.91,-61.01,6.02
259.0,-0.0,0.01,0.01,46.12,-83.34,18.37,-1.91,-61.01,6.02
259.0,-0.0,-0.01,0.0,46.11,-83.37,18.38,-1.91,-61.01,6.02
259.0,-0.0,-0.01,0.0,46.11,-83.37,18.38,-1.69,-61.43,42.64
259.0,-0.0,-0.01,0.0,46.11,-83.37,18.38,-1.98,-61.02,6.05
259.0,-0.0,-0.01,0.0,46.11,-83.37,18.38,-1.98,-61.02,6.05
259.0,-0.0,-0.01,0.0,46.11,-83.37,18.38,-1.98,-61.02,6.05
259.0,0.0,0.01,0.01,46.13,-83.34,18.43,-1.98,-61.02,6.05
259.0,0.0,0.01,0.01,46.13,-83.34,18.43,-1.71,-61.41,42.68
259.0,0.0,0.01,0.01,46.13,-83.34,18.43,-2.01,-60.99,6.1
259.0,0.0,0.01,0.01,46.13,-83.34,18.43,-2.01,-60.99,6.1
259.0,0.0,0.01,0.01,46.13,-83.34,18.43,-2.01,-60.99,6.1
259.0,-0.0,0.0,0.01,46.11,-83.33,18.47,-2.01,-60.99,6.1
259.0,-0.0,0.0,0.01,46.11,-83.33,18.47,-1.89,-61.39,42.82
259.0,-0.0,0.0,0.01,46.11,-83.33,18.47,-2.2,-60.97,6.25
259.0,-0.0,0.0,0.01,46.11,-83.33,18.47,-2.2,-60.97,6.25
259.0,-0.0,0.0,0.01,46.11,-83.33,18.47,-2.2,-60.97,6.25
259.0,-0.0,0.01,0.01,46.09,-83.28,18.53,-2.2,-60.97,6.25
259.0,-0.0,0.01,0.01,46.09,-83.28,18.53,-2.04,-61.37,42.95
259.0,-0.0,0.01,0.01,46.09,-83.28,18.53,-2.36,-60.94,6.38
259.0,-0.0,0.01,0.01,46.09,-83.28,18.53,-2.36,-60.94,6.38
259.0,-0.0,0.01,0.01,46.09,-83.28,18.53,-2.36,-60.94,6.38
259.0,-0.01,0.01,0.03,46.03,-83.2,18.69,-2.36,-60.94,6.38
259.0,-0.01,0.01,0.03,46.03,-83.2,18.69,-2.25,-61.31,43.12
259.0,-0.01,0.01,0.03,46.03,-83.2,18.69,-2.59,-60.88,6.56
259.0,-0.01,0.01,0.03,46.03,-83.2,18.69,-2.59,-60.88,6.56
259.0,-0.01,0.01,0.03,46.03,-83.2,18.69,-2.59,-60.88,6.56
259.0,-0.0,0.01,0.01,46.01,-83.13,18.72,-2.59,-60.88,6.56
259.0,-0.0,0.01,0.01,46.01,-83.13,18.72,-2.42,-61.25,43.24
259.0,-0.0,0.01,0.01,46.01,-83.13,18.72,-2.71,-60.83,6.65
260.0,-0.0,0.01,0.01,46.01,-83.13,18.72,-2.71,-60.83,6.65
260.0,-0.0,0.01,0.01,46.01,-83.13,18.72,-2.71,-60.83,6.65
260.0,-0.0,0.0,0.0,45.99,-83.13,18.73,-2.71,-60.83,6.65
260.0,-0.0,0.0,0.0,45.99,-83.13,18.73,-2.51,-61.24,43.31
260.0,-0.0,0.0,0.0,45.99,-83.13,18.73,-2.8,-60.81,6.71
260.0,-0.0,0.0,0.0,45.99,-83.13,18.73,-2.8,-60.81,6.71
260.0,-0.0,0.0,0.0,45.99,-83.13,18.73,-2.8,-60.81,6.71
260.0,-0.0,0.0,0.01,45.98,-83.12,18.79,-2.8,-60.81,6.71
260.0,-0.0,0.0,0.01,45.98,-83.12,18.79,-2.63,-61.22,43.42
260.0,-0.0,0.0,0.01,45.98,-83.12,18.79,-2.93,-60.8,6.81
260.0,-0.0,0.0,0.01,45.98,-83.12,18.79,-2.93,-60.8,6.81
260.0,-0.0,0.0,0.01,45.98,-83.12,18.79,-2.93,-60.8,6.81
260.0,0.0,0.0,0.0,45.99,-83.1,18.81,-2.93,-60.8,6.81
260.0,0.0,0.0,0.0,45.99,-83.1,18.81,-2.7,-61.21,43.48
260.0,0.0,0.0,0.0,45.99,-83.1,18.81,-2.95,-60.79,6.84
260.0,0.0,0.0,0.0,45.99,-83.1,18.81,-2.95,-60.79,6.84
260.0,0.0,0.0,0.0,45.99,-83.1,18.81,-2.95,-60.79,6.84
260.0,0.0,0.0,0.0,45.99,-83.1,18.81,-3.05,-60.77,6.92
260.0,0.0,0.0,0.01,45.99,-83.09,18.87,-3.05,-60.77,6.92
260.0,0.0,0.0,0.01,45.99,-83.09,18.87,-2.6,-60.77,43.37
260.0,0.0,0.0,0.01,45.99,-83.09,18.87,-2.6,-60.77,43.37
260.0,0.0,0.0,0.01,45.99,-83.09,18.87,-3.24,-60.76,7.06
260.0,0.0,0.0,0.01,45.99,-83.09,18.87,-3.24,-60.76,7.06
260.0,-0.02,0.0,0.02,45.88,-83.09,18.97,-3.24,-60.76,7.06
260.0,-0.02,0.0,0.02,45.88,-83.09,18.97,-2.82,-60.75,43.57
260.0,-0.02,0.0,0.02,45.88,-83.09,18.97,-2.82,-60.75,43.57
260.0,-0.02,0.0,0.02,45.88,-83.09,18.97,-3.37,-60.74,7.16
260.0,-0.02,0.0,0.02,45.88,-83.09,18.97,-3.37,-60.74,7.16
260.0,-0.01,0.0,0.02,45.8,-83.08,19.06,-3.37,-60.74,7.16
260.0,-0.01,0.0,0.02,45.8,-83.08,19.06,-2.93,-60.73,43.66
260.0,-0.01,0.0,0.02,45.8,-83.08,19.06,-2.93,-60.73,43.66
260.0,-0.01,0.0,0.02,45.8,-83.08,19.06,-3.54,-60.72,7.31
260.0,-0.01,0.0,0.02,45.8,-83.08,19.06,-3.54,-60.72,7.31
260.0,0.01,0.0,0.0,45.83,-83.08,19.08,-3.54,-60.72,7.31
260.0,0.01,0.0,0.0,45.83,-83.08,19.08,-3.06,-60.71,43.78
260.0,0.01,0.0,0.0,45.83,-83.08,19.08,-3.06,-60.71,43.78
260.0,0.01,0.0,0.0,45.83,-83.08,19.08,-3.64,-60.7,7.43
260.0,0.01,0.0,0.0,45.83,-83.08,19.08,-3.64,-60.7,7.43
260.0,0.0,0.0,0.01,45.83,-83.07,19.17,-3.64,-60.7,7.43
260.0,0.0,0.0,0.01,45.83,-83.07,19.17,-3.23,-60.69,43.95
260.0,0.0,0.0,0.01,45.83,-83.07,19.17,-3.23,-60.69,43.95
260.0,0.0,0.0,0.01,45.83,-83.07,19.17,-3.78,-60.69,7.56
260.0,0.0,0.0,0.01,45.83,-83.07,19.17,-3.78,-60.69,7.56
260.0,0.02,-0.0,-0.01,45.94,-83.08,19.13,-3.78,-60.69,7.56
260.0,0.02,-0.0,-0.01,45.94,-83.08,19.13,-3.25,-60.69,44.0
260.0,0.02,-0.0,-0.01,45.94,-83.08,19.13,-3.25,-60.69,44.0
260.0,0.02,-0.0,-0.01,45.94,-83.08,19.13,-3.68,-60.69,7.52
261.0,0.02,-0.0,-0.01,45.94,-83.08,19.13,-3.68,-60.69,7.52
261.0,0.02,-0.0,-0.02,46.04,-83.09,19.03,-3.68,-60.69,7.52
261.0,0.02,-0.0,-0.02,46.04,-83.09,19.03,-3.06,-60.7,43.89
261.0,0.02,-0.0,-0.02,46.04,-83.09,19.03,-3.06,-60.7,43.89
261.0,0.02,-0.0,-0.02,46.04,-83.09,19.03,-3.47,-60.7,7.38
261.0,0.02,-0.0,-0.02,46.04,-83.09,19.03,-3.47,-60.7,7.38
261.0,0.01,0.0,0.01,46.09,-83.08,19.06,-3.47,-60.7,7.38
261.0,0.01,0.0,0.01,46.09,-83.08,19.06,-2.93,-60.71,43.83
261.0,0.01,0.0,0.01,46.09,-83.08,19.06,-2.93,-60.71,43.83
261.0,0.01,0.0,0.01,46.09,-83.08,19.06,-3.44,-60.69,7.38
261.0,0.01,0.0,0.01,46.09,-83.08,19.06,-3.44,-60.69,7.38
261.0,0.01,0.0,0.01,46.09,-83.08,19.06,-3.44,-60.69,7.38
261.0,-0.04,1.38,0.02,45.81,-73.44,19.22,-3.44,-60.69,7.38
261.0,-0.04,1.38,0.02,45.81,-73.44,19.22,-2.36,-54.3,43.46
261.0,-0.04,1.38,0.02,45.81,-73.44,19.22,-2.31,-51.02,6.46
261.0,-0.04,1.38,0.02,45.81,-73.44,19.22,-2.31,-51.02,6.46
261.0,-0.04,1.38,0.02,45.81,-73.44,19.22,-2.31,-51.02,6.46
261.0,0.04,0.01,0.02,46.06,-73.4,19.32,-2.31,-51.02,6.46
261.0,0.04,0.01,0.02,46.06,-73.4,19.32,-2.31,-50.88,43.4
261.0,0.04,0.01,0.02,46.06,-73.4,19.32,-2.54,-50.92,6.71
261.0,0.04,0.71,-0.0,46.32,-69.34,19.31,-2.54,-50.92,6.71
261.0,0.04,0.71,-0.0,46.32,-69.34,19.31,-2.15,-49.49,43.29
261.0,0.04,0.71,-0.0,46.32,-69.34,19.31,-2.44,-49.53,6.66
261.0,0.04,0.71,-0.0,46.32,-69.34,19.31,-2.44,-49.53,6.66
261.0,0.04,0.71,-0.0,46.32,-69.34,19.31,-2.44,-49.53,6.66
261.0,0.04,0.71,-0.0,46.32,-69.34,19.31,-2.36,-46.33,6.59
261.0,0.04,0.71,-0.0,46.32,-69.34,19.31,-2.36,-46.33,6.59
261.0,0.03,0.38,-0.0,46.54,-66.2,19.29,-2.36,-46.33,6.59
261.0,0.03,0.38,-0.0,46.54,-66.2,19.29,-2.12,-45.61,43.25
261.0,0.03,0.38,-0.0,46.54,-66.2,19.29,-2.12,-45.61,43.25
261.0,0.03,0.38,-0.0,46.54,-66.2,19.29,-2.07,-41.29,6.37
261.0,0.03,0.38,-0.0,46.54,-66.2,19.29,-2.07,-41.29,6.37
261.0,0.05,0.0,0.12,46.83,-66.18,20.04,-2.07,-41.29,6.37
261.0,0.05,0.0,0.12,46.83,-66.18,20.04,-1.96,-41.37,43.29
261.0,0.05,0.0,0.12,46.83,-66.18,20.04,-1.96,-41.37,43.29
261.0,0.05,0.0,0.12,46.83,-66.18,20.04,-2.2,-41.2,7.23
261.0,0.05,0.0,0.12,46.83,-66.18,20.04,-2.2,-41.2,7.23
261.0,0.28,2.63,0.11,48.44,-50.97,20.68,-2.2,-41.2,7.23
261.0,0.28,2.63,0.11,48.44,-50.97,20.68,-1.94,-39.23,44.19
261.0,0.28,2.63,0.11,48.44,-50.97,20.68,-1.85,-33.52,7.69
261.0,0.28,2.63,0.11,48.44,-50.97,20.68,-1.85,-33.52,7.69
261.0,0.28,2.63,0.11,48.44,-50.97,20.68,-1.85,-33.52,7.69
261.0,0.05,-0.01,0.15,48.74,-51.01,21.57,-1.85,-33.52,7.69
261.0,0.05,-0.01,0.15,48.74,-51.01,21.57,-1.82,-33.06,44.6
261.0,0.05,-0.01,0.15,48.74,-51.01,21.57,-2.06,-33.27,8.32
261.0,0.05,-0.01,0.15,48.74,-51.01,21.57,-2.06,-33.27,8.32
261.0,0.05,-0.01,0.15,48.74,-51.01,21.57,-2.06,-33.27,8.32
262.0,0.11,0.03,0.18,49.37,-50.87,22.6,-2.06,-33.27,8.32
262.0,0.11,0.03,0.18,49.37,-50.87,22.6,-1.87,-32.45,45.33
262.0,0.11,0.03,0.18,49.37,-50.87,22.6,-1.53,-21.4,8.81
262.0,0.11,0.03,0.18,49.37,-50.87,22.6,-1.53,-21.4,8.81
262.0,0.11,0.03,0.18,49.37,-50.87,22.6,-1.53,-21.4,8.81
262.0,0.02,1.12,0.08,49.52,-43.47,23.1,-1.53,-21.4,8.81
262.0,0.02,1.12,0.08,49.52,-43.47,23.1,-1.44,-17.96,45.71
262.0,0.02,1.12,0.08,49.52,-43.47,23.1,-1.48,-14.0,9.03
262.0,0.02,1.12,0.08,49.52,-43.47,23.1,-1.48,-14.0,9.03
262.0,0.02,1.12,0.08,49.52,-43.47,23.1,-1.48,-14.0,9.03
262.0,0.02,-0.01,0.13,49.61,-43.5,23.86,-1.48,-14.0,9.03
262.0,0.02,-0.01,0.13,49.61,-43.5,23.86,-1.34,-11.9,46.13
262.0,0.02,-0.01,0.13,49.61,-43.5,23.86,-1.44,-12.48,9.71
262.0,0.02,-0.01,0.13,49.61,-43.5,23.86,-1.44,-12.48,9.71
262.0,0.02,-0.01,0.13,49.61,-43.5,23.86,-1.44,-12.48,9.71
262.0,-0.02,0.01,0.03,49.52,-43.47,24.02,-1.44,-12.48,9.71
262.0,-0.02,0.01,0.03,49.52,-43.47,24.02,-1.34,-11.83,46.66
262.0,-0.02,0.01,0.03,49.52,-43.47,24.02,-1.5,-12.43,9.93
262.0,-0.02,0.01,0.03,49.52,-43.47,24.02,-1.5,-12.43,9.93
262.0,-0.02,0.01,0.03,49.52,-43.47,24.02,-1.5,-12.43,9.93
262.0,-0.02,0.0,0.01,49.39,-43.47,24.07,-1.5,-12.43,9.93
262.0,-0.02,0.0,0.01,49.39,-43.47,24.07,-1.41,-11.81,46.73
262.0,-0.02,0.0,0.01,49.39,-43.47,24.07,-1.45,-10.02,9.93
262.0,-0.02,0.0,0.01,49.39,-43.47,24.07,-1.45,-10.02,9.93
262.0,-0.02,0.0,0.01,49.39,-43.47,24.07,-1.45,-10.02,9.93
262.0,-0.02,0.16,-0.0,49.29,-42.44,24.05,-1.45,-10.02,9.93
262.0,-0.02,0.16,-0.0,49.29,-42.44,24.05,-1.37,-8.05,46.69
262.0,-0.02,0.16,-0.0,49.29,-42.44,24.05,-1.51,-8.68,9.89
262.0,-0.02,0.16,-0.0,49.29,-42.44,24.05,-1.51,-8.68,9.89
262.0,-0.02,0.16,-0.0,49.29,-42.44,24.05,-1.51,-8.68,9.89
262.0,0.01,-0.01,-0.01,49.35,-42.5,23.96,-1.51,-8.68,9.89
262.0,0.01,-0.01,-0.01,49.35,-42.5,23.96,-1.3,-8.1,46.63
262.0,0.01,-0.01,-0.01,49.35,-42.5,23.96,-1.43,-8.73,9.82
262.0,0.01,-0.01,-0.01,49.35,-42.5,23.96,-1.43,-8.73,9.82
262.0,0.01,-0.01,-0.01,49.35,-42.5,23.96,-1.43,-8.73,9.82
262.0,0.0,-0.0,0.0,49.36,-42.51,23.99,-1.43,-8.73,9.82
262.0,0.0,-0.0,0.0,49.36,-42.51,23.99,-1.24,-8.13,46.61
262.0,0.0,-0.0,0.0,49.36,-42.51,23.99,-1.38,-8.73,9.82
262.0,0.0,-0.0,0.0,49.36,-42.51,23.99,-1.38,-8.73,9.82
262.0,0.0,-0.0,0.0,49.36,-42.51,23.99,-1.38,-8.73,9.82
262.0,0.0,-0.0,0.0,49.36,-42.51,23.99,-1.4,-8.72,9.81
262.0,-0.01,0.0,0.0,49.29,-42.51,24.0,-1.4,-8.72,9.81
262.0,-0.01,0.0,0.0,49.29,-42.51,24.0,-1.28,-8.13,46.59
262.0,-0.01,0.0,0.0,49.29,-42.51,24.0,-1.28,-8.13,46.59
262.0,-0.01,0.0,0.0,49.29,-42.51,24.0,-1.45,-8.72,9.81
262.0,-0.01,0.0,0.0,49.29,-42.51,24.0,-1.45,-8.72,9.81
262.0,-0.01,0.0,0.01,49.24,-42.49,24.07,-1.45,-8.72,9.81
263.0,-0.01,0.0,0.01,49.24,-42.49,24.07,-1.3,-8.04,46.6
263.0,-0.01,0.0,0.01,49.24,-42.49,24.07,-1.3,-8.04,46.6
263.0,-0.01,0.0,0.01,49.24,-42.49,24.07,-1.53,-8.69,9.84
263.0,-0.01,0.0,0.01,49.24,-42.49,24.07,-1.53,-8.69,9.84
263.0,-0.01,0.01,0.01,49.16,-42.45,24.1,-1.53,-8.69,9.84
263.0,-0.01,0.01,0.01,49.16,-42.45,24.1,-1.4,-8.01,46.64
263.0,-0.01,0.01,0.01,49.16,-42.45,24.1,-1.46,-4.98,9.81
263.0,-0.01,0.01,0.01,49.16,-42.45,24.1,-1.46,-4.98,9.81
263.0,-0.05,0.05,0.01,48.83,-42.17,24.15,-1.46,-4.98,9.81
263.0,-0.05,0.05,0.01,48.83,-42.17,24.15,-1.27,-4.25,46.6
263.0,-0.05,0.05,0.01,48.83,-42.17,24.15,-1.27,-4.25,46.6
263.0,-0.05,0.05,0.01,48.83,-42.17,24.15,-1.55,-4.28,9.79
263.0,-0.05,0.05,0.01,48.83,-42.17,24.15,-1.55,-4.28,9.79
263.0,-0.05,0.05,0.01,48.83,-42.17,24.15,-1.55,-4.28,9.79
263.0,0.01,0.0,-0.02,48.87,-42.17,24.01,-1.55,-4.28,9.79
263.0,0.01,0.0,-0.02,48.87,-42.17,24.01,-1.2,-4.27,46.52
263.0,0.01,0.0,-0.02,48.87,-42.17,24.01,-1.51,-4.29,9.68
263.0,0.01,0.0,-0.02,48.87,-42.17,24.01,-1.51,-4.29,9.68
263.0,0.01,0.0,-0.02,48.87,-42.17,24.01,-1.51,-4.29,9.68
263.0,0.03,0.03,-0.02,49.05,-41.96,23.87,-1.51,-4.29,9.68
263.0,0.03,0.03,-0.02,49.05,-41.96,23.87,-1.1,-4.12,46.34
263.0,0.03,0.03,-0.02,49.05,-41.96,23.87,-1.39,-4.14,9.54
263.0,0.03,0.03,-0.02,49.05,-41.96,23.87,-1.39,-4.14,9.54
263.0,0.01,0.69,0.01,49.09,-38.13,23.9,-1.39,-4.14,9.54
263.0,0.01,0.69,0.01,49.09,-38.13,23.9,-1.18,-3.77,46.3
263.0,0.01,0.69,0.01,49.09,-38.13,23.9,-1.18,-3.77,46.3
263.0,0.01,0.69,0.01,49.09,-38.13,23.9,-1.39,-1.98,9.5
263.0,0.01,0.69,0.01,49.09,-38.13,23.9,-1.39,-1.98,9.5
263.0,-0.03,-0.01,0.0,48.91,-38.2,23.91,-1.39,-1.98,9.5
263.0,-0.03,-0.01,0.0,48.91,-38.2,23.91,-1.18,-1.26,46.26
263.0,-0.03,-0.01,0.0,48.91,-38.2,23.91,-1.18,-1.26,46.26
263.0,-0.03,-0.01,0.0,48.91,-38.2,23.91,-1.52,-1.15,9.48
263.0,-0.03,-0.01,0.0,48.91,-38.2,23.91,-1.52,-1.15,9.48
263.0,-0.02,-0.01,0.01,48.8,-38.23,23.94,-1.52,-1.15,9.48
263.0,-0.02,-0.01,0.01,48.8,-38.23,23.94,-1.21,-1.27,46.26
263.0,-0.02,-0.01,0.01,48.8,-38.23,23.94,-1.21,-1.27,46.26
263.0,-0.02,-0.01,0.01,48.8,-38.23,23.94,-1.56,-1.16,9.49
263.0,-0.02,-0.01,0.01,48.8,-38.23,23.94,-1.56,-1.16,9.49
263.0,0.01,-0.0,-0.0,48.86,-38.25,23.92,-1.56,-1.16,9.49
263.0,0.01,-0.0,-0.0,48.86,-38.25,23.92,-1.19,-1.28,46.26
263.0,0.01,-0.0,-0.0,48.86,-38.25,23.92,-1.19,-1.28,46.26
263.0,0.01,-0.0,-0.0,48.86,-38.25,23.92,-1.52,-1.17,9.48
263.0,0.01,-0.0,-0.0,48.86,-38.25,23.92,-1.52,-1.17,9.48
263.0,-0.0,0.0,0.0,48.84,-38.25,23.93,-1.52,-1.17,9.48
263.0,-0.0,0.0,0.0,48.84,-38.25,23.93,-1.19,-1.28,46.26
263.0,-0.0,0.0,0.0,48.84,-38.25,23.93,-1.53,-1.16,9.48
263.0,-0.0,0.0,0.0,48.84,-38.25,23.93,-1.53,-1.16,9.48
264.0,-0.0,0.0,0.0,48.84,-38.25,23.93,-1.53,-1.16,9.48
264.0,-0.01,0.0,0.0,48.78,-38.25,23.96,-1.53,-1.16,9.48
264.0,-0.01,0.0,0.0,48.78,-38.25,23.96,-1.19,-1.29,46.26
264.0,-0.01,0.0,0.0,48.78,-38.25,23.96,-1.54,-1.16,9.48
264.0,-0.01,0.0,0.0,48.78,-38.25,23.96,-1.54,-1.16,9.48
264.0,-0.01,0.0,0.0,48.78,-38.25,23.96,-1.54,-1.16,9.48
264.0,0.0,-0.0,0.0,48.8,-38.26,23.98,-1.54,-1.16,9.48
264.0,0.0,-0.0,0.0,48.8,-38.26,23.98,-1.2,-1.28,46.27
264.0,0.0,-0.0,0.0,48.8,-38.26,23.98,-1.56,-1.16,9.49
264.0,0.0,-0.0,0.0,48.8,-38.26,23.98,-1.56,-1.16,9.49
264.0,0.0,-0.0,0.0,48.8,-38.26,23.98,-1.56,-1.16,9.49
264.0,-0.02,-0.0,0.0,48.72,-38.27,23.99,-1.56,-1.16,9.49
264.0,-0.02,-0.0,0.0,48.72,-38.27,23.99,-1.25,-1.28,46.27
264.0,-0.02,-0.0,0.0,48.72,-38.27,23.99,-1.61,-1.16,9.49
264.0,-0.02,-0.0,0.0,48.72,-38.27,23.99,-1.61,-1.16,9.49
264.0,-0.02,-0.0,0.0,48.72,-38.27,23.99,-1.61,-1.16,9.49
264.0,-0.01,-0.0,0.0,48.68,-38.28,24.0,-1.61,-1.16,9.49
264.0,-0.01,-0.0,0.0,48.68,-38.28,24.0,-1.2,-1.45,46.27
264.0,-0.01,-0.0,0.0,48.68,-38.28,24.0,-1.63,-1.16,9.49
264.0,-0.01,-0.0,0.0,48.68,-38.28,24.0,-1.63,-1.16,9.49
264.0,-0.0,-0.0,0.0,48.66,-38.29,24.02,-1.63,-1.16,9.49
264.0,-0.0,-0.0,0.0,48.66,-38.29,24.02,-1.22,-1.46,46.28
264.0,-0.0,-0.0,0.0,48.66,-38.29,24.02,-1.22,-1.46,46.28
264.0,-0.0,-0.0,0.0,48.66,-38.29,24.02,-1.64,-1.16,9.51
264.0,-0.0,-0.0,0.0,48.66,-38.29,24.02,-1.64,-1.16,9.51
264.0,0.0,0.0,0.0,48.67,-38.28,24.05,-1.64,-1.16,9.51
264.0,0.0,0.0,0.0,48.67,-38.28,24.05,-1.35,-1.45,46.3
264.0,0.0,0.0,0.0,48.67,-38.28,24.05,-1.75,-1.15,9.52
264.0,0.0,0.0,0.0,48.67,-38.28,24.05,-1.75,-1.15,9.52
264.0,0.0,0.0,0.0,48.67,-38.28,24.05,-1.75,-1.15,9.52
264.0,0.0,0.0,0.0,48.67,-38.28,24.05,-1.77,-1.14,9.51
264.0,0.0,0.0,0.0,48.69,-38.26,24.06,-1.77,-1.14,9.51
264.0,0.0,0.0,0.0,48.69,-38.26,24.06,-1.35,-1.45,46.29
264.0,0.0,0.0,0.0,48.69,-38.26,24.06,-1.35,-1.45,46.29
264.0,0.0,0.0,0.0,48.69,-38.26,24.06,-1.35,-1.45,46.29
264.0,0.0,0.0,0.0,48.69,-38.26,24.06,-1.78,-1.14,9.51
264.0,0.01,0.0,0.0,48.72,-38.26,24.08,-1.78,-1.14,9.51
264.0,0.01,0.0,0.0,48.72,-38.26,24.08,-1.38,-1.46,46.28
264.0,0.01,0.0,0.0,48.72,-38.26,24.08,-1.38,-1.46,46.28
264.0,0.01,0.0,0.0,48.72,-38.26,24.08,-1.38,-1.46,46.28
264.0,0.01,0.0,0.0,48.72,-38.26,24.08,-1.84,-1.14,9.52
264.0,-0.01,0.0,0.0,48.65,-38.25,24.1,-1.84,-1.14,9.52
264.0,-0.01,0.0,0.0,48.65,-38.25,24.1,-1.45,-1.45,46.29
264.0,-0.01,0.0,0.0,48.65,-38.25,24.1,-1.45,-1.45,46.29
264.0,-0.01,0.0,0.0,48.65,-38.25,24.1,-1.45,-1.45,46.29
264.0,-0.01,0.0,0.0,48.65,-38.25,24.1,-1.88,-1.13,9.52
264.0,-0.01,-0.0,0.0,48.58,-38.27,24.1,-1.88,-1.13,9.52
265.0,-0.01,-0.0,0.0,48.58,-38.27,24.1,-1.5,-1.45,46.28
265.0,-0.01,-0.0,0.0,48.58,-38.27,24.1,-1.5,-1.45,46.28
265.0,-0.01,-0.0,0.0,48.58,-38.27,24.1,-1.5,-1.45,46.28
265.0,-0.01,-0.0,0.0,48.58,-38.27,24.1,-2.01,-1.14,9.48
265.0,-0.04,0.0,-0.01,48.33,-38.26,24.06,-2.01,-1.14,9.48
265.0,-0.04,0.0,-0.01,48.33,-38.26,24.06,-1.64,-1.46,46.25
265.0,-0.04,0.0,-0.01,48.33,-38.26,24.06,-1.64,-1.46,46.25
265.0,-0.04,0.0,-0.01,48.33,-38.26,24.06,-1.64,-1.46,46.25
265.0,-0.04,0.0,-0.01,48.33,-38.26,24.06,-2.18,-1.13,9.45
265.0,-0.03,-0.02,-0.01,48.14,-38.35,24.02,-2.18,-1.13,9.45
265.0,-0.03,-0.02,-0.01,48.14,-38.35,24.02,-1.78,-1.47,46.23
265.0,-0.03,-0.02,-0.01,48.14,-38.35,24.02,-1.78,-1.47,46.23
265.0,-0.03,-0.02,-0.01,48.14,-38.35,24.02,-1.78,-1.47,46.23
265.0,-0.03,-0.02,-0.01,48.14,-38.35,24.02,-2.22,-1.14,9.44
265.0,-0.02,-0.0,-0.0,48.0,-38.38,24.0,-2.22,-1.14,9.44
265.0,-0.02,-0.0,-0.0,48.0,-38.38,24.0,-1.79,-1.48,46.23
265.0,-0.02,-0.0,-0.0,48.0,-38.38,24.0,-1.79,-1.48,46.23
265.0,-0.02,-0.0,-0.0,48.0,-38.38,24.0,-1.79,-1.48,46.23
265.0,-0.02,-0.0,-0.0,48.0,-38.38,24.0,-2.57,-1.14,9.48
265.0,-0.02,0.0,0.01,47.88,-38.35,24.03,-2.57,-1.14,9.48
265.0,-0.02,0.0,0.01,47.88,-38.35,24.03,-2.11,-1.51,46.26
265.0,-0.02,0.0,0.01,47.88,-38.35,24.03,-2.11,-1.51,46.26
265.0,-0.02,0.0,0.01,47.88,-38.35,24.03,-2.11,-1.51,46.26
265.0,-0.02,0.0,0.01,47.88,-38.35,24.03,-2.41,-1.16,9.47
265.0,0.04,0.0,0.0,48.13,-38.33,24.03,-2.41,-1.16,9.47
265.0,0.04,0.0,0.0,48.13,-38.33,24.03,-1.88,-1.55,46.21
265.0,0.04,0.0,0.0,48.13,-38.33,24.03,-1.88,-1.55,46.21
265.0,0.04,0.0,0.0,48.13,-38.33,24.03,-2.38,-1.17,9.46
265.0,0.04,0.0,0.0,48.13,-38.33,24.03,-2.38,-1.17,9.46
265.0,0.03,-0.0,-0.0,48.33,-38.34,24.02,-2.38,-1.17,9.46
265.0,0.03,-0.0,-0.0,48.33,-38.34,24.02,-1.91,-1.56,46.22
265.0,0.03,-0.0,-0.0,48.33,-38.34,24.02,-1.91,-1.56,46.22
265.0,0.03,-0.0,-0.0,48.33,-38.34,24.02,-2.37,-1.17,9.45
265.0,0.0,0.0,-0.01,48.33,-38.34,23.98,-2.37,-1.17,9.45
265.0,0.0,0.0,-0.01,48.33,-38.34,23.98,-1.85,-1.58,46.21
265.0,0.0,0.0,-0.01,48.33,-38.34,23.98,-1.85,-1.58,46.21
265.0,0.0,0.0,-0.01,48.33,-38.34,23.98,-1.85,-1.58,46.21
265.0,0.0,0.0,-0.01,48.33,-38.34,23.98,-2.39,-1.18,9.45
265.0,-0.0,0.0,0.0,48.31,-38.33,24.0,-2.39,-1.18,9.45
265.0,-0.0,0.0,0.0,48.31,-38.33,24.0,-1.88,-1.57,46.21
265.0,-0.0,0.0,0.0,48.31,-38.33,24.0,-1.88,-1.57,46.21
265.0,-0.0,0.0,0.0,48.31,-38.33,24.0,-1.88,-1.57,46.21
265.0,-0.0,0.0,0.0,48.31,-38.33,24.0,-2.39,-1.18,9.44
265.0,-0.0,0.0,0.0,48.29,-38.33,24.0,-2.39,-1.18,9.44
265.0,-0.0,0.0,0.0,48.29,-38.33,24.0,-1.87,-1.58,46.21
265.0,-0.0,0.0,0.0,48.29,-38.33,24.0,-1.87,-1.58,46.21
265.0,-0.0,0.0,0.0,48.29,-38.33,24.0,-1.87,-1.58,46.21
265.0,-0.0,0.0,0.0,48.29,-38.33,24.0,-2.4,-1.17,9.45
266.0,0.0,0.0,-0.0,48.32,-38.31,23.99,-2.4,-1.17,9.45
266.0,0.0,0.0,-0.0,48.32,-38.31,23.99,-1.88,-1.56,46.21
266.0,0.0,0.0,-0.0,48.32,-38.31,23.99,-1.88,-1.56,46.21
266.0,0.0,0.0,-0.0,48.32,-38.31,23.99,-1.88,-1.56,46.21
266.0,0.0,0.0,-0.0,48.32,-38.31,23.99,-2.47,-1.17,9.43
266.0,0.0,0.0,-0.0,48.32,-38.31,23.99,-2.47,-1.17,9.43
266.0,0.02,0.0,0.0,48.42,-38.31,24.0,-2.47,-1.17,9.43
266.0,0.02,0.0,0.0,48.42,-38.31,24.0,-1.96,-1.58,46.19
266.0,0.02,0.0,0.0,48.42,-38.31,24.0,-2.43,-1.16,9.42
266.0,0.02,0.0,0.0,48.42,-38.31,24.0,-2.43,-1.16,9.42
266.0,0.02,0.0,0.0,48.42,-38.31,24.0,-2.43,-1.16,9.42
266.0,0.02,-0.0,-0.0,48.53,-38.34,23.99,-2.43,-1.16,9.42
266.0,0.02,-0.0,-0.0,48.53,-38.34,23.99,-1.87,-1.68,46.19
266.0,0.02,-0.0,-0.0,48.53,-38.34,23.99,-2.37,-1.17,9.41
266.0,0.02,-0.0,-0.0,48.53,-38.34,23.99,-2.37,-1.17,9.41
266.0,0.02,-0.0,-0.0,48.53,-38.34,23.99,-2.37,-1.17,9.41
266.0,0.02,-0.0,0.0,48.63,-38.35,24.01,-2.37,-1.17,9.41
266.0,0.02,-0.0,0.0,48.63,-38.35,24.01,-1.84,-1.69,46.19
266.0,0.02,-0.0,0.0,48.63,-38.35,24.01,-2.38,-1.17,9.42
266.0,0.02,-0.0,0.0,48.63,-38.35,24.01,-2.38,-1.17,9.42
266.0,0.02,-0.0,0.0,48.63,-38.35,24.01,-2.38,-1.17,9.42
266.0,-0.02,-0.0,0.0,48.52,-38.36,24.03,-2.38,-1.17,9.42
266.0,-0.02,-0.0,0.0,48.52,-38.36,24.03,-1.99,-1.7,46.2
266.0,-0.02,-0.0,0.0,48.52,-38.36,24.03,-2.54,-1.17,9.43
266.0,-0.02,-0.0,0.0,48.52,-38.36,24.03,-2.54,-1.17,9.43
266.0,-0.02,-0.0,0.0,48.52,-38.36,24.03,-2.54,-1.17,9.43
266.0,-0.01,-0.0,0.0,48.46,-38.37,24.05,-2.54,-1.17,9.43
266.0,-0.01,-0.0,0.0,48.46,-38.37,24.05,-2.05,-1.7,46.2
266.0,-0.01,-0.0,0.0,48.46,-38.37,24.05,-2.55,-1.17,9.43
266.0,-0.01,-0.0,0.0,48.46,-38.37,24.05,-2.55,-1.17,9.43
266.0,-0.01,-0.0,0.0,48.46,-38.37,24.05,-2.55,-1.17,9.43
266.0,-0.0,0.0,0.0,48.43,-38.36,24.05,-2.55,-1.17,9.43
266.0,-0.0,0.0,0.0,48.43,-38.36,24.05,-1.97,-1.71,46.2
266.0,-0.0,0.0,0.0,48.43,-38.36,24.05,-2.51,-1.16,9.42
266.0,-0.0,0.0,0.0,48.43,-38.36,24.05,-2.51,-1.16,9.42
266.0,-0.0,0.0,0.0,48.43,-38.36,24.05,-2.51,-1.16,9.42
266.0,0.03,0.0,-0.0,48.62,-38.35,24.03,-2.51,-1.16,9.42
266.0,0.03,0.0,-0.0,48.62,-38.35,24.03,-1.94,-1.71,46.2
266.0,0.03,0.0,-0.0,48.62,-38.35,24.03,-2.45,-1.16,9.42
266.0,0.03,0.0,-0.0,48.62,-38.35,24.03,-2.45,-1.16,9.42
266.0,-0.0,-0.0,0.0,48.6,-38.36,24.03,-2.45,-1.16,9.42
266.0,-0.0,-0.0,0.0,48.6,-38.36,24.03,-1.97,-1.72,46.18
266.0,-0.0,-0.0,0.0,48.6,-38.36,24.03,-1.97,-1.72,46.18
266.0,-0.0,-0.0,0.0,48.6,-38.36,24.03,-2.5,-1.16,9.4
266.0,-0.0,-0.0,0.0,48.6,-38.36,24.03,-2.5,-1.16,9.4
266.0,0.02,-0.0,0.02,48.7,-38.37,24.15,-2.5,-1.16,9.4
266.0,0.02,-0.0,0.02,48.7,-38.37,24.15,-1.96,-1.71,46.04
266.0,0.02,-0.0,0.02,48.7,-38.37,24.15,-2.45,-1.16,9.26
267.0,0.02,-0.0,0.02,48.7,-38.37,24.15,-2.45,-1.16,9.26
267.0,0.02,-0.0,0.02,48.7,-38.37,24.15,-2.45,-1.16,9.26
267.0,0.01,0.01,-2.87,48.74,-38.34,7.7,-2.45,-1.16,9.26
267.0,0.01,0.01,-2.87,48.74,-38.34,7.7,-1.4,-2.02,34.8
267.0,0.01,0.01,-2.87,48.74,-38.34,7.7,-1.93,-1.71,-5.35
267.0,0.01,0.01,-2.87,48.74,-38.34,7.7,-1.93,-1.71,-5.35
267.0,0.01,0.01,-2.87,48.74,-38.34,7.7,-1.93,-1.71,-5.35
267.0,-0.04,-0.04,-1.72,48.5,-38.55,-2.26,-1.93,-1.71,-5.35
267.0,-0.04,-0.04,-1.72,48.5,-38.55,-2.26,-1.21,-2.44,24.09
267.0,-0.04,-0.04,-1.72,48.5,-38.55,-2.26,-1.67,-2.2,-15.37
267.0,-0.04,-0.04,-1.72,48.5,-38.55,-2.26,-1.67,-2.2,-15.37
267.0,-0.04,-0.04,-1.72,48.5,-38.55,-2.26,-1.67,-2.2,-15.37
267.0,0.05,0.01,-0.76,48.77,-38.52,-6.59,-1.67,-2.2,-15.37
267.0,0.05,0.01,-0.76,48.77,-38.52,-6.59,-0.5,-2.51,13.7
267.0,0.05,0.01,-0.76,48.77,-38.52,-6.59,-1.02,-2.29,-23.63
267.0,0.05,0.01,-0.76,48.77,-38.52,-6.59,-1.02,-2.29,-23.63
267.0,0.05,0.01,-0.76,48.77,-38.52,-6.59,-1.02,-2.29,-23.63
267.0,0.03,0.02,-1.75,48.98,-38.41,-17.64,-1.02,-2.29,-23.63
267.0,0.03,0.02,-1.75,48.98,-38.41,-17.64,-0.29,-2.64,8.17
267.0,0.03,0.02,-1.75,48.98,-38.41,-17.64,-0.78,-2.48,-29.7
267.0,0.03,0.02,-1.75,48.98,-38.41,-17.64,-0.78,-2.48,-29.7
267.0,0.03,0.02,-1.75,48.98,-38.41,-17.64,-0.78,-2.48,-29.7
267.0,0.03,0.02,-1.75,48.98,-38.41,-17.64,-0.39,-2.53,-37.89
267.0,-0.03,-0.02,-1.12,48.78,-38.56,-25.42,-0.39,-2.53,-37.89
267.0,-0.03,-0.02,-1.12,48.78,-38.56,-25.42,0.17,-2.62,-1.75
267.0,-0.03,-0.02,-1.12,48.78,-38.56,-25.42,0.17,-2.62,-1.75
267.0,-0.03,-0.02,-1.12,48.78,-38.56,-25.42,0.17,-2.62,-1.75
267.0,-0.03,-0.02,-1.12,48.78,-38.56,-25.42,-0.12,-2.7,-45.87
267.0,-0.01,-0.0,-1.43,48.69,-38.57,-34.44,-0.12,-2.7,-45.87
267.0,-0.01,-0.0,-1.43,48.69,-38.57,-34.44,0.46,-2.73,-10.56
267.0,-0.01,-0.0,-1.43,48.69,-38.57,-34.44,0.46,-2.73,-10.56
267.0,-0.01,-0.0,-1.43,48.69,-38.57,-34.44,0.17,-2.58,-53.74
267.0,-0.01,-0.0,-1.43,48.69,-38.57,-34.44,0.17,-2.58,-53.74
267.0,-0.02,-0.03,-1.49,48.56,-38.73,-43.34,0.17,-2.58,-53.74
267.0,-0.02,-0.03,-1.49,48.56,-38.73,-43.34,0.69,-2.54,-18.57
267.0,-0.02,-0.03,-1.49,48.56,-38.73,-43.34,0.69,-2.54,-18.57
267.0,-0.02,-0.03,-1.49,48.56,-38.73,-43.34,0.45,-2.62,-60.09
267.0,-0.02,-0.03,-1.49,48.56,-38.73,-43.34,0.45,-2.62,-60.09
267.0,0.01,-0.01,-0.81,48.6,-38.78,-48.27,0.45,-2.62,-60.09
267.0,0.01,-0.01,-0.81,48.6,-38.78,-48.27,0.95,-2.56,-24.87
267.0,0.01,-0.01,-0.81,48.6,-38.78,-48.27,0.95,-2.56,-24.87
267.0,0.01,-0.01,-0.81,48.6,-38.78,-48.27,0.69,-2.5,-65.22
267.0,0.01,-0.01,-0.81,48.6,-38.78,-48.27,0.69,-2.5,-65.22
267.0,0.01,-0.01,-0.71,48.65,-38.81,-52.37,0.69,-2.5,-65.22
267.0,0.01,-0.01,-0.71,48.65,-38.81,-52.37,1.15,-2.41,-30.28
267.0,0.01,-0.01,-0.71,48.65,-38.81,-52.37,1.15,-2.41,-30.28
267.0,0.01,-0.01,-0.71,48.65,-38.81,-52.37,0.82,-2.53,-67.25
268.0,0.01,-0.01,-0.71,48.65,-38.81,-52.37,0.82,-2.53,-67.25
268.0,0.01,0.03,0.04,48.72,-38.61,-52.1,0.82,-2.53,-67.25
268.0,0.01,0.03,0.04,48.72,-38.61,-52.1,1.19,-2.42,-30.73
268.0,0.01,0.03,0.04,48.72,-38.61,-52.1,1.19,-2.42,-30.73
268.0,0.01,0.03,0.04,48.72,-38.61,-52.1,0.8,-2.46,-67.06
268.0,0.01,0.03,0.04,48.72,-38.61,-52.1,0.8,-2.46,-67.06
268.0,0.01,-0.01,-0.01,48.8,-38.65,-52.14,0.8,-2.46,-67.06
268.0,0.01,-0.01,-0.01,48.8,-38.65,-52.14,1.22,-2.43,-30.72
268.0,0.01,-0.01,-0.01,48.8,-38.65,-52.14,1.22,-2.43,-30.72
268.0,0.01,-0.01,-0.01,48.8,-38.65,-52.14,0.81,-2.48,-67.07
268.0,0.01,-0.01,-0.01,48.8,-38.65,-52.14,0.81,-2.48,-67.07
268.0,-0.01,-0.0,-0.02,48.73,-38.66,-52.25,0.81,-2.48,-67.07
268.0,-0.01,-0.0,-0.02,48.73,-38.66,-52.25,1.22,-2.41,-30.77
268.0,-0.01,-0.0,-0.02,48.73,-38.66,-52.25,1.22,-2.41,-30.77
268.0,-0.01,-0.0,-0.02,48.73,-38.66,-52.25,0.8,-2.46,-67.13
268.0,0.0,0.01,-0.01,48.74,-38.63,-52.31,0.8,-2.46,-67.13
268.0,0.0,0.01,-0.01,48.74,-38.63,-52.31,1.16,-2.43,-30.84
268.0,0.0,0.01,-0.01,48.74,-38.63,-52.31,1.16,-2.43,-30.84
268.0,0.0,0.01,-0.01,48.74,-38.63,-52.31,0.81,-2.47,-67.19
268.0,-0.01,-0.01,-0.0,48.67,-38.66,-52.32,0.81,-2.47,-67.19
268.0,-0.01,-0.01,-0.0,48.67,-38.66,-52.32,1.13,-2.46,-30.91
268.0,-0.01,-0.01,-0.0,48.67,-38.66,-52.32,1.13,-2.46,-30.91
268.0,-0.01,-0.01,-0.0,48.67,-38.66,-52.32,1.13,-2.46,-30.91
268.0,-0.01,-0.01,-0.0,48.67,-38.66,-52.32,0.76,-2.51,-67.24
268.0,-0.01,-0.0,-0.0,48.63,-38.69,-52.33,0.76,-2.51,-67.24
268.0,-0.01,-0.0,-0.0,48.63,-38.69,-52.33,1.09,-2.47,-30.95
268.0,-0.01,-0.0,-0.0,48.63,-38.69,-52.33,1.09,-2.47,-30.95
268.0,-0.01,-0.0,-0.0,48.63,-38.69,-52.33,0.74,-2.53,-67.27
268.0,-0.01,-0.0,-0.0,48.63,-38.69,-52.33,0.74,-2.53,-67.27
268.0,-0.01,-0.0,-0.0,48.63,-38.69,-52.33,0.74,-2.53,-67.27
268.0,0.0,-0.02,-0.01,48.63,-38.84,-52.37,0.74,-2.53,-67.27
268.0,0.0,-0.02,-0.01,48.63,-38.84,-52.37,1.06,-2.55,-30.99
268.0,0.0,-0.02,-0.01,48.63,-38.84,-52.37,0.7,-2.63,-67.31
268.0,0.0,-0.02,-0.01,48.63,-38.84,-52.37,0.7,-2.63,-67.31
268.0,0.0,-0.02,-0.01,48.63,-38.84,-52.37,0.7,-2.63,-67.31
268.0,-0.0,-0.03,-0.01,48.6,-39.0,-52.42,0.7,-2.63,-67.31
268.0,-0.0,-0.03,-0.01,48.6,-39.0,-52.42,1.03,-2.68,-31.04
268.0,-0.0,-0.03,-0.01,48.6,-39.0,-52.42,0.67,-2.73,-67.35
268.0,-0.0,-0.03,-0.01,48.6,-39.0,-52.42,0.67,-2.73,-67.35
268.0,-0.0,-0.03,-0.01,48.6,-39.0,-52.42,0.67,-2.73,-67.35
268.0,0.0,0.0,-0.01,48.62,-38.98,-52.46,0.67,-2.73,-67.35
268.0,0.0,0.0,-0.01,48.62,-38.98,-52.46,1.03,-2.67,-31.08
268.0,0.0,0.0,-0.01,48.62,-38.98,-52.46,0.68,-2.72,-67.4
268.0,0.0,0.0,-0.01,48.62,-38.98,-52.46,0.68,-2.72,-67.4
268.0,0.0,0.0,-0.01,48.62,-38.98,-52.46,0.68,-2.72,-67.4
268.0,0.0,-0.02,-0.0,48.64,-39.13,-52.48,0.68,-2.72,-67.4
268.0,0.0,-0.02,-0.0,48.64,-39.13,-52.48,1.05,-2.72,-31.08
269.0,0.0,-0.02,-0.0,48.64,-39.13,-52.48,0.68,-2.77,-67.41
269.0,0.0,-0.02,-0.0,48.64,-39.13,-52.48,0.68,-2.77,-67.41
269.0,0.0,-0.02,-0.0,48.64,-39.13,-52.48,0.68,-2.77,-67.41
269.0,0.0,-0.02,-0.0,48.64,-39.13,-52.48,0.89,-2.44,-73.78
269.0,0.01,-0.02,-0.34,48.7,-39.25,-54.85,0.89,-2.44,-73.78
269.0,0.01,-0.02,-0.34,48.7,-39.25,-54.85,0.49,-2.52,-37.19
269.0,0.01,-0.02,-0.34,48.7,-39.25,-54.85,0.49,-2.52,-37.19
269.0,0.01,-0.02,-0.34,48.7,-39.25,-54.85,0.49,-2.52,-37.19
269.0,0.01,-0.02,-0.34,48.7,-39.25,-54.85,0.92,-2.5,-73.94
269.0,-0.0,0.04,0.02,48.68,-39.03,-54.74,0.92,-2.5,-73.94
269.0,-0.0,0.04,0.02,48.68,-39.03,-54.74,0.51,-2.51,-37.19
269.0,-0.0,0.04,0.02,48.68,-39.03,-54.74,0.51,-2.51,-37.19
269.0,-0.0,0.04,0.02,48.68,-39.03,-54.74,0.51,-2.51,-37.19
269.0,-0.0,0.04,0.02,48.68,-39.03,-54.74,0.9,-2.45,-73.88
269.0,0.01,-0.01,0.0,48.72,-39.11,-54.72,0.9,-2.45,-73.88
269.0,0.01,-0.01,0.0,48.72,-39.11,-54.72,0.5,-2.52,-37.13
269.0,0.01,-0.01,0.0,48.72,-39.11,-54.72,0.5,-2.52,-37.13
269.0,0.01,-0.01,0.0,48.72,-39.11,-54.72,0.5,-2.52,-37.13
269.0,0.01,-0.01,0.0,48.72,-39.11,-54.72,0.9,-2.45,-73.84
269.0,0.01,0.01,-0.0,48.76,-39.06,-54.73,0.9,-2.45,-73.84
269.0,0.01,0.01,-0.0,48.76,-39.06,-54.73,0.5,-2.5,-37.11
269.0,0.01,0.01,-0.0,48.76,-39.06,-54.73,0.5,-2.5,-37.11
269.0,0.01,0.01,-0.0,48.76,-39.06,-54.73,0.5,-2.5,-37.11
269.0,0.01,0.01,-0.0,48.76,-39.06,-54.73,0.89,-2.44,-73.85
269.0,0.01,-0.01,0.0,48.8,-39.11,-54.7,0.89,-2.44,-73.85
269.0,0.01,-0.01,0.0,48.8,-39.11,-54.7,0.5,-2.52,-37.11
269.0,0.01,-0.01,0.0,48.8,-39.11,-54.7,0.5,-2.52,-37.11
269.0,0.01,-0.01,0.0,48.8,-39.11,-54.7,0.93,-2.49,-73.84
269.0,0.01,-0.01,0.0,48.8,-39.11,-54.7,0.93,-2.49,-73.84
269.0,0.01,-0.01,-0.0,48.84,-39.15,-54.71,0.93,-2.49,-73.84
269.0,0.01,-0.01,-0.0,48.84,-39.15,-54.71,0.54,-2.56,-37.11
269.0,0.01,-0.01,-0.0,48.84,-39.15,-54.71,0.54,-2.56,-37.11
269.0,0.01,-0.01,-0.0,48.84,-39.15,-54.71,0.97,-2.53,-73.85
269.0,-0.0,-0.05,0.01,48.83,-39.43,-54.65,0.97,-2.53,-73.85
269.0,-0.0,-0.05,0.01,48.83,-39.43,-54.65,0.55,-2.67,-37.11
269.0,-0.0,-0.05,0.01,48.83,-39.43,-54.65,0.55,-2.67,-37.11
269.0,-0.0,-0.05,0.01,48.83,-39.43,-54.65,0.55,-2.67,-37.11
269.0,-0.0,-0.05,0.01,48.83,-39.43,-54.65,0.96,-2.63,-73.85
269.0,-0.01,0.01,-0.0,48.79,-39.38,-54.66,0.96,-2.63,-73.85
269.0,-0.01,0.01,-0.0,48.79,-39.38,-54.66,0.55,-2.71,-37.11
269.0,-0.01,0.01,-0.0,48.79,-39.38,-54.66,0.55,-2.71,-37.11
269.0,-0.01,0.01,-0.0,48.79,-39.38,-54.66,0.55,-2.71,-37.11
269.0,-0.01,0.01,-0.0,48.79,-39.38,-54.66,0.94,-2.62,-73.86
269.0,0.0,-0.0,0.0,48.81,-39.39,-54.65,0.94,-2.62,-73.86
269.0,0.0,-0.0,0.0,48.81,-39.39,-54.65,0.53,-2.71,-37.11
269.0,0.0,-0.0,0.0,48.81,-39.39,-54.65,0.53,-2.71,-37.11
269.0,0.0,-0.0,0.0,48.81,-39.39,-54.65,0.53,-2.71,-37.11
269.0,0.0,-0.0,0.0,48.81,-39.39,-54.65,0.93,-2.63,-73.85
270.0,0.0,-0.0,0.0,48.83,-39.41,-54.64,0.93,-2.63,-73.85
270.0,0.0,-0.0,0.0,48.83,-39.41,-54.64,0.53,-2.71,-37.11
270.0,0.0,-0.0,0.0,48.83,-39.41,-54.64,0.53,-2.71,-37.11
270.0,0.0,-0.0,0.0,48.83,-39.41,-54.64,0.53,-2.71,-37.11
270.0,0.0,-0.0,0.0,48.83,-39.41,-54.64,0.93,-2.63,-73.85
270.0,0.0,-0.0,0.0,48.86,-39.42,-54.61,0.93,-2.63,-73.85
270.0,0.0,-0.0,0.0,48.86,-39.42,-54.61,0.54,-2.72,-37.11
270.0,0.0,-0.0,0.0,48.86,-39.42,-54.61,0.54,-2.72,-37.11
270.0,0.0,-0.0,0.0,48.86,-39.42,-54.61,0.54,-2.72,-37.11
270.0,0.0,-0.0,0.0,48.86,-39.42,-54.61,0.93,-2.63,-73.85
270.0,0.0,-0.0,0.0,48.88,-39.43,-54.6,0.93,-2.63,-73.85
270.0,0.0,-0.0,0.0,48.88,-39.43,-54.6,0.54,-2.71,-37.1
270.0,0.0,-0.0,0.0,48.88,-39.43,-54.6,0.54,-2.71,-37.1
270.0,0.0,-0.0,0.0,48.88,-39.43,-54.6,0.54,-2.71,-37.1
270.0,0.0,-0.0,0.0,48.88,-39.43,-54.6,0.94,-2.62,-73.85
270.0,0.0,0.0,0.0,48.89,-39.42,-54.59,0.94,-2.62,-73.85
270.0,0.0,0.0,0.0,48.89,-39.42,-54.59,0.55,-2.7,-37.1
270.0,0.0,0.0,0.0,48.89,-39.42,-54.59,0.55,-2.7,-37.1
270.0,0.0,0.0,0.0,48.89,-39.42,-54.59,0.55,-2.7,-37.1
270.0,0.0,0.0,0.0,48.89,-39.42,-54.59,0.93,-2.62,-73.85
270.0,0.0,0.0,0.01,48.92,-39.41,-54.55,0.93,-2.62,-73.85
270.0,0.0,0.0,0.01,48.92,-39.41,-54.55,0.55,-2.69,-37.09
270.0,0.0,0.0,0.01,48.92,-39.41,-54.55,0.55,-2.69,-37.09
270.0,0.0,0.0,0.01,48.92,-39.41,-54.55,0.55,-2.69,-37.09
270.0,0.0,0.0,0.01,48.92,-39.41,-54.55,0.94,-2.58,-73.82
270.0,0.0,0.01,0.01,48.94,-39.35,-54.51,0.94,-2.58,-73.82
270.0,0.0,0.01,0.01,48.94,-39.35,-54.51,0.55,-2.65,-37.04
270.0,0.0,0.01,0.01,48.94,-39.35,-54.51,0.55,-2.65,-37.04
270.0,0.0,0.01,0.01,48.94,-39.35,-54.51,0.95,-2.56,-73.78
270.0,-0.01,0.03,0.03,48.91,-39.19,-54.34,0.95,-2.56,-73.78
270.0,-0.01,0.03,0.03,48.91,-39.19,-54.34,0.56,-2.78,-36.93
270.0,-0.01,0.03,0.03,48.91,-39.19,-54.34,0.87,-2.6,-73.6
270.0,-0.01,0.03,0.03,48.91,-39.19,-54.34,0.87,-2.6,-73.6
270.0,0.01,-0.0,0.02,48.95,-39.2,-54.22,0.87,-2.6,-73.6
270.0,0.01,-0.0,0.02,48.95,-39.2,-54.22,0.52,-2.64,-36.82
270.0,0.01,-0.0,0.02,48.95,-39.2,-54.22,0.89,-2.62,-73.43
270.0,0.01,-0.0,0.02,48.95,-39.2,-54.22,0.89,-2.62,-73.43
270.0,0.03,-0.07,0.09,49.1,-39.59,-53.68,0.89,-2.62,-73.43
270.0,0.03,-0.07,0.09,49.1,-39.59,-53.68,0.53,-2.84,-36.58
270.0,0.03,-0.07,0.09,49.1,-39.59,-53.68,0.53,-2.84,-36.58
270.0,0.03,-0.07,0.09,49.1,-39.59,-53.68,0.91,-2.9,-72.88
270.0,0.03,-0.07,0.09,49.1,-39.59,-53.68,0.91,-2.9,-72.88
270.0,-0.01,0.06,0.02,49.05,-39.23,-53.58,0.91,-2.9,-72.88
270.0,-0.01,0.06,0.02,49.05,-39.23,-53.58,0.46,-2.81,-36.04
270.0,-0.01,0.06,0.02,49.05,-39.23,-53.58,0.46,-2.81,-36.04
270.0,-0.01,0.06,0.02,49.05,-39.23,-53.58,0.79,-2.76,-72.54
271.0,-0.01,0.06,0.02,49.05,-39.23,-53.58,0.79,-2.76,-72.54
271.0,-0.01,0.04,0.08,49.02,-39.01,-53.13,0.79,-2.76,-72.54
271.0,-0.01,0.04,0.08,49.02,-39.01,-53.13,0.44,-2.85,-35.83
271.0,-0.01,0.04,0.08,49.02,-39.01,-53.13,0.44,-2.85,-35.83
271.0,-0.01,0.04,0.08,49.02,-39.01,-53.13,0.68,-2.65,-72.17
271.0,-0.01,0.04,0.08,49.02,-39.01,-53.13,0.68,-2.65,-72.17
271.0,0.01,-0.04,0.01,49.06,-39.23,-53.08,0.68,-2.65,-72.17
271.0,0.01,-0.04,0.01,49.06,-39.23,-53.08,0.38,-2.78,-35.62
271.0,0.01,-0.04,0.01,49.06,-39.23,-53.08,0.38,-2.78,-35.62
271.0,0.01,-0.04,0.01,49.06,-39.23,-53.08,0.66,-2.62,-72.07
271.0,0.01,-0.04,0.01,49.06,-39.23,-53.08,0.66,-2.62,-72.07
271.0,0.01,-0.03,0.0,49.15,-39.4,-53.07,0.66,-2.62,-72.07
271.0,0.01,-0.03,0.0,49.15,-39.4,-53.07,0.37,-2.76,-35.59
271.0,0.01,-0.03,0.0,49.15,-39.4,-53.07,0.37,-2.76,-35.59
271.0,0.01,-0.03,0.0,49.15,-39.4,-53.07,0.69,-2.57,-72.04
271.0,0.04,0.17,0.01,49.36,-38.49,-53.03,0.69,-2.57,-72.04
271.0,0.04,0.17,0.01,49.36,-38.49,-53.03,-0.58,-2.51,-35.64
271.0,0.04,0.17,0.01,49.36,-38.49,-53.03,-0.58,-2.51,-35.64
271.0,0.04,0.17,0.01,49.36,-38.49,-53.03,-0.58,-2.51,-35.64
271.0,0.04,0.17,0.01,49.36,-38.49,-53.03,0.99,-1.94,-72.01
271.0,0.04,0.17,0.01,49.36,-38.49,-53.03,0.99,-1.94,-72.01
271.0,3.77,-0.27,0.03,75.72,-40.36,-52.83,0.99,-1.94,-72.01
271.0,3.77,-0.27,0.03,75.72,-40.36,-52.83,6.85,-2.66,-35.57
271.0,3.77,-0.27,0.03,75.72,-40.36,-52.83,13.22,-2.65,-72.01
271.0,3.77,-0.27,0.03,75.72,-40.36,-52.83,13.22,-2.65,-72.01
271.0,3.77,-0.27,0.03,75.72,-40.36,-52.83,13.22,-2.65,-72.01
271.0,1.96,-0.13,0.04,86.96,-41.09,-52.6,13.22,-2.65,-72.01
271.0,1.96,-0.13,0.04,86.96,-41.09,-52.6,13.92,-2.83,-35.44
271.0,1.96,-0.13,0.04,86.96,-41.09,-52.6,19.74,-2.92,-71.98
271.0,1.96,-0.13,0.04,86.96,-41.09,-52.6,19.74,-2.92,-71.98
271.0,1.96,-0.13,0.04,86.96,-41.09,-52.6,19.74,-2.92,-71.98
271.0,0.44,-0.01,-0.01,89.46,-41.12,-52.64,19.74,-2.92,-71.98
271.0,0.44,-0.01,-0.01,89.46,-41.12,-52.64,22.36,-3.01,-35.57
271.0,0.44,-0.01,-0.01,89.46,-41.12,-52.64,25.7,-2.98,-72.16
271.0,0.44,-0.01,-0.01,89.46,-41.12,-52.64,25.7,-2.98,-72.16
271.0,0.44,-0.01,-0.01,89.46,-41.12,-52.64,25.7,-2.98,-72.16
271.0,0.02,0.05,0.01,89.57,-40.83,-52.58,25.7,-2.98,-72.16
271.0,0.02,0.05,0.01,89.57,-40.83,-52.58,26.76,-3.06,-35.67
271.0,0.02,0.05,0.01,89.57,-40.83,-52.58,27.92,-2.8,-72.16
271.0,0.02,0.05,0.01,89.57,-40.83,-52.58,27.92,-2.8,-72.16
271.0,0.02,0.05,0.01,89.57,-40.83,-52.58,27.92,-2.8,-72.16
271.0,2.36,-0.13,0.0,103.63,-41.63,-52.56,27.92,-2.8,-72.16
271.0,2.36,-0.13,0.0,103.63,-41.63,-52.56,34.96,-3.54,-35.93
271.0,2.36,-0.13,0.0,103.63,-41.63,-52.56,36.64,-3.22,-72.4
271.0,2.36,-0.13,0.0,103.63,-41.63,-52.56,36.64,-3.22,-72.4
271.0,2.36,-0.13,0.0,103.63,-41.63,-52.56,36.64,-3.22,-72.4
271.0,0.03,0.05,-0.02,103.81,-41.33,-52.65,36.64,-3.22,-72.4
271.0,0.03,0.05,-0.02,103.81,-41.33,-52.65,36.41,-3.27,-35.83
271.0,0.03,0.05,-0.02,103.81,-41.33,-52.65,36.75,-2.97,-72.29
272.0,0.03,0.05,-0.02,103.81,-41.33,-52.65,36.75,-2.97,-72.29
272.0,0.03,0.05,-0.02,103.81,-41.33,-52.65,36.75,-2.97,-72.29
272.0,2.21,-0.05,-0.01,117.35,-41.64,-52.73,36.75,-2.97,-72.29
272.0,2.21,-0.05,-0.01,117.35,-41.64,-52.73,46.2,-3.81,-36.19
272.0,2.21,-0.05,-0.01,117.35,-41.64,-52.73,47.28,-3.47,-72.67
272.0,2.21,-0.05,-0.01,117.35,-41.64,-52.73,47.28,-3.47,-72.67
272.0,2.21,-0.05,-0.01,117.35,-41.64,-52.73,47.28,-3.47,-72.67
272.0,3.28,-0.33,0.1,138.6,-43.77,-52.08,47.28,-3.47,-72.67
272.0,3.28,-0.33,0.1,138.6,-43.77,-52.08,52.17,-3.77,-36.35
272.0,3.28,-0.33,0.1,138.6,-43.77,-52.08,53.33,-3.7,-72.96
272.0,3.28,-0.33,0.1,138.6,-43.77,-52.08,53.33,-3.7,-72.96
272.0,3.28,-0.33,0.1,138.6,-43.77,-52.08,53.33,-3.7,-72.96
272.0,3.28,-0.33,0.1,138.6,-43.77,-52.08,53.23,-3.37,-72.68
272.0,0.03,0.02,0.0,138.82,-43.64,-52.06,53.23,-3.37,-72.68
272.0,0.03,0.02,0.0,138.82,-43.64,-52.06,52.07,-3.44,-36.05
272.0,0.03,0.02,0.0,138.82,-43.64,-52.06,52.07,-3.44,-36.05
272.0,0.03,0.02,0.0,138.82,-43.64,-52.06,52.07,-3.44,-36.05
272.0,0.03,0.02,0.0,138.82,-43.64,-52.06,53.36,-3.22,-72.52
272.0,2.72,-0.37,0.0,155.99,-45.99,-52.05,53.36,-3.22,-72.52
272.0,2.72,-0.37,0.0,155.99,-45.99,-52.05,54.86,-3.52,-36.09
272.0,2.72,-0.37,0.0,155.99,-45.99,-52.05,54.86,-3.52,-36.09
272.0,2.72,-0.37,0.0,155.99,-45.99,-52.05,56.39,-3.34,-72.61
272.0,2.72,-0.37,0.0,155.99,-45.99,-52.05,56.39,-3.34,-72.61
272.0,0.01,0.02,-0.01,156.03,-45.86,-52.1,56.39,-3.34,-72.61
272.0,0.01,0.02,-0.01,156.03,-45.86,-52.1,56.97,-3.64,-36.17
272.0,0.01,0.02,-0.01,156.03,-45.86,-52.1,56.97,-3.64,-36.17
272.0,0.01,0.02,-0.01,156.03,-45.86,-52.1,56.44,-3.31,-72.51
272.0,0.01,0.02,-0.01,156.03,-45.86,-52.1,56.44,-3.31,-72.51
272.0,0.0,0.05,0.02,156.05,-45.57,-52.0,56.44,-3.31,-72.51
272.0,0.0,0.05,0.02,156.05,-45.57,-52.0,57.05,-3.58,-35.99
272.0,0.0,0.05,0.02,156.05,-45.57,-52.0,57.05,-3.58,-35.99
272.0,0.0,0.05,0.02,156.05,-45.57,-52.0,56.47,-3.36,-72.35
272.0,-0.01,-0.01,0.01,156.01,-45.6,-51.94,56.47,-3.36,-72.35
272.0,-0.01,-0.01,0.01,156.01,-45.6,-51.94,57.03,-3.66,-35.91
272.0,-0.01,-0.01,0.01,156.01,-45.6,-51.94,57.03,-3.66,-35.91
272.0,-0.01,-0.01,0.01,156.01,-45.6,-51.94,57.03,-3.66,-35.91
272.0,-0.01,-0.01,0.01,156.01,-45.6,-51.94,56.41,-3.39,-72.34
272.0,-0.0,-0.03,0.02,155.99,-45.78,-51.83,56.41,-3.39,-72.34
272.0,-0.0,-0.03,0.02,155.99,-45.78,-51.83,57.0,-3.72,-35.93
272.0,-0.0,-0.03,0.02,155.99,-45.78,-51.83,57.0,-3.72,-35.93
272.0,-0.0,-0.03,0.02,155.99,-45.78,-51.83,57.0,-3.72,-35.93
272.0,-0.0,-0.03,0.02,155.99,-45.78,-51.83,56.38,-3.48,-72.37
272.0,-0.01,-0.0,-0.0,155.95,-45.79,-51.85,56.38,-3.48,-72.37
272.0,-0.01,-0.0,-0.0,155.95,-45.79,-51.85,56.96,-3.76,-35.95
272.0,-0.01,-0.0,-0.0,155.95,-45.79,-51.85,56.96,-3.76,-35.95
272.0,-0.01,-0.0,-0.0,155.95,-45.79,-51.85,56.96,-3.76,-35.95
272.0,-0.01,-0.0,-0.0,155.95,-45.79,-51.85,56.35,-3.5,-72.39
273.0,0.0,-0.01,-0.01,155.96,-45.87,-51.9,56.35,-3.5,-72.39
273.0,0.0,-0.01,-0.01,155.96,-45.87,-51.9,56.95,-3.78,-36.0
273.0,0.0,-0.01,-0.01,155.96,-45.87,-51.9,56.95,-3.78,-36.0
273.0,0.0,-0.01,-0.01,155.96,-45.87,-51.9,56.95,-3.78,-36.0
273.0,0.0,-0.01,-0.01,155.96,-45.87,-51.9,56.34,-3.52,-72.43
273.0,0.0,-0.01,-0.0,155.98,-45.93,-51.91,56.34,-3.52,-72.43
273.0,0.0,-0.01,-0.0,155.98,-45.93,-51.91,56.93,-3.81,-36.02
273.0,0.0,-0.01,-0.0,155.98,-45.93,-51.91,56.93,-3.81,-36.02
273.0,0.0,-0.01,-0.0,155.98,-45.93,-51.91,56.93,-3.81,-36.02
273.0,0.0,-0.01,-0.0,155.98,-45.93,-51.91,56.31,-3.53,-72.46
273.0,-0.02,-0.01,0.02,155.89,-46.01,-51.79,56.31,-3.53,-72.46
273.0,-0.02,-0.01,0.02,155.89,-46.01,-51.79,56.88,-3.86,-36.03
273.0,-0.02,-0.01,0.02,155.89,-46.01,-51.79,56.88,-3.86,-36.03
273.0,-0.02,-0.01,0.02,155.89,-46.01,-51.79,56.88,-3.86,-36.03
273.0,-0.02,-0.01,0.02,155.89,-46.01,-51.79,56.26,-3.62,-72.49
273.0,0.0,-0.01,-0.01,155.91,-46.04,-51.84,56.26,-3.62,-72.49
273.0,0.0,-0.01,-0.01,155.91,-46.04,-51.84,56.87,-3.89,-36.09
273.0,0.0,-0.01,-0.01,155.91,-46.04,-51.84,56.87,-3.89,-36.09
273.0,0.0,-0.01,-0.01,155.91,-46.04,-51.84,56.87,-3.89,-36.09
273.0,0.0,-0.01,-0.01,155.91,-46.04,-51.84,56.25,-3.59,-72.54
273.0,0.0,-0.01,-0.01,155.92,-46.08,-51.88,56.25,-3.59,-72.54
273.0,0.0,-0.01,-0.01,155.92,-46.08,-51.88,56.87,-3.87,-36.15
273.0,0.0,-0.01,-0.01,155.92,-46.08,-51.88,56.87,-3.87,-36.15
273.0,0.0,-0.01,-0.01,155.92,-46.08,-51.88,56.87,-3.87,-36.15
273.0,0.0,-0.01,-0.01,155.92,-46.08,-51.88,56.25,-3.59,-72.57
273.0,0.0,-0.01,0.0,155.94,-46.11,-51.87,56.25,-3.59,-72.57
273.0,0.0,-0.01,0.0,155.94,-46.11,-51.87,56.87,-3.88,-36.16
273.0,0.0,-0.01,0.0,155.94,-46.11,-51.87,56.87,-3.88,-36.16
273.0,0.0,-0.01,0.0,155.94,-46.11,-51.87,56.25,-3.6,-72.58
273.0,0.0,-0.01,0.0,155.94,-46.11,-51.87,56.25,-3.6,-72.58
273.0,0.0,-0.01,0.0,155.94,-46.11,-51.87,56.25,-3.6,-72.58
273.0,0.0,0.0,-0.01,155.94,-46.1,-51.92,56.25,-3.6,-72.58
273.0,0.0,0.0,-0.01,155.94,-46.1,-51.92,56.87,-3.88,-36.16
273.0,0.0,0.0,-0.01,155.94,-46.1,-51.92,56.25,-3.58,-72.59
273.0,0.0,0.0,-0.01,155.94,-46.1,-51.92,56.25,-3.58,-72.59
273.0,0.0,0.0,-0.01,155.94,-46.1,-51.92,56.25,-3.58,-72.59
273.0,-0.0,0.0,-0.0,155.92,-46.1,-51.94,56.25,-3.58,-72.59
273.0,-0.0,0.0,-0.0,155.92,-46.1,-51.94,56.87,-3.87,-36.16
273.0,-0.0,0.0,-0.0,155.92,-46.1,-51.94,56.24,-3.57,-72.58
273.0,-0.0,0.0,-0.0,155.92,-46.1,-51.94,56.24,-3.57,-72.58
273.0,-0.0,0.0,-0.0,155.92,-46.1,-51.94,56.24,-3.57,-72.58
273.0,0.0,-0.0,0.0,155.94,-46.12,-51.92,56.24,-3.57,-72.58
273.0,0.0,-0.0,0.0,155.94,-46.12,-51.92,57.29,-3.81,-36.19
273.0,0.0,-0.0,0.0,155.94,-46.12,-51.92,56.24,-3.54,-72.59
273.0,0.0,-0.0,0.0,155.94,-46.12,-51.92,56.24,-3.54,-72.59
273.0,0.0,-0.0,0.0,155.94,-46.12,-51.92,56.24,-3.54,-72.59
273.0,0.0,-0.0,0.01,155.95,-46.13,-51.88,56.24,-3.54,-72.59
274.0,0.0,-0.0,0.01,155.95,-46.13,-51.88,57.28,-3.79,-36.2
274.0,0.0,-0.0,0.01,155.95,-46.13,-51.88,56.23,-3.52,-72.6
274.0,0.0,-0.0,0.01,155.95,-46.13,-51.88,56.23,-3.52,-72.6
274.0,0.0,-0.0,0.01,155.95,-46.13,-51.88,56.23,-3.52,-72.6
274.0,0.0,-0.0,0.01,155.95,-46.13,-51.88,56.22,-3.54,-72.61
274.0,0.0,0.0,-0.0,155.98,-46.12,-51.89,56.22,-3.54,-72.61
274.0,0.0,0.0,-0.0,155.98,-46.12,-51.89,57.28,-3.81,-36.2
274.0,0.0,0.0,-0.0,155.98,-46.12,-51.89,57.28,-3.81,-36.2
274.0,0.0,0.0,-0.0,155.98,-46.12,-51.89,57.28,-3.81,-36.2
274.0,0.0,0.0,-0.0,155.98,-46.12,-51.89,56.21,-3.55,-72.61
274.0,0.0,-0.0,0.0,155.98,-46.14,-51.89,56.21,-3.55,-72.61
274.0,0.0,-0.0,0.0,155.98,-46.14,-51.89,57.27,-3.83,-36.22
274.0,0.0,-0.0,0.0,155.98,-46.14,-51.89,57.27,-3.83,-36.22
274.0,0.0,-0.0,0.0,155.98,-46.14,-51.89,57.27,-3.83,-36.22
274.0,0.0,-0.0,0.0,155.98,-46.14,-51.89,56.22,-3.55,-72.63
274.0,0.0,0.0,-0.0,155.99,-46.14,-51.91,56.22,-3.55,-72.63
274.0,0.0,0.0,-0.0,155.99,-46.14,-51.91,57.28,-3.82,-36.23
274.0,0.0,0.0,-0.0,155.99,-46.14,-51.91,57.28,-3.82,-36.23
274.0,0.0,0.0,-0.0,155.99,-46.14,-51.91,57.28,-3.82,-36.23
274.0,0.0,0.0,-0.0,155.99,-46.14,-51.91,56.2,-3.59,-72.64
274.0,0.0,-0.01,0.01,155.99,-46.19,-51.82,56.2,-3.59,-72.64
274.0,0.0,-0.01,0.01,155.99,-46.19,-51.82,57.27,-3.88,-36.23
274.0,0.0,-0.01,0.01,155.99,-46.19,-51.82,57.27,-3.88,-36.23
274.0,0.0,-0.01,0.01,155.99,-46.19,-51.82,57.27,-3.88,-36.23
274.0,0.0,-0.01,0.01,155.99,-46.19,-51.82,56.19,-3.63,-72.64
274.0,0.0,-0.01,0.01,156.02,-46.25,-51.77,56.19,-3.63,-72.64
274.0,0.0,-0.01,0.01,156.02,-46.25,-51.77,57.28,-3.93,-36.24
274.0,0.0,-0.01,0.01,156.02,-46.25,-51.77,57.28,-3.93,-36.24
274.0,0.0,-0.01,0.01,156.02,-46.25,-51.77,56.18,-3.71,-72.66
274.0,0.0,-0.01,0.01,156.02,-46.25,-51.77,56.18,-3.71,-72.66
274.0,-0.0,-0.02,0.01,156.01,-46.37,-51.69,56.18,-3.71,-72.66
274.0,-0.0,-0.02,0.01,156.01,-46.37,-51.69,57.26,-4.03,-36.26
274.0,-0.0,-0.02,0.01,156.01,-46.37,-51.69,57.26,-4.03,-36.26
274.0,-0.0,-0.02,0.01,156.01,-46.37,-51.69,56.17,-3.79,-72.71
274.0,0.0,0.0,-0.01,156.03,-46.36,-51.74,56.17,-3.79,-72.71
274.0,0.0,0.0,-0.01,156.03,-46.36,-51.74,57.0,-4.08,-36.3
274.0,0.0,0.0,-0.01,156.03,-46.36,-51.74,57.0,-4.08,-36.3
274.0,0.0,0.0,-0.01,156.03,-46.36,-51.74,57.0,-4.08,-36.3
274.0,0.0,0.0,-0.01,156.03,-46.36,-51.74,56.16,-3.77,-72.72
274.0,0.0,-0.0,0.0,156.05,-46.37,-51.72,56.16,-3.77,-72.72
274.0,0.0,-0.0,0.0,156.05,-46.37,-51.72,57.0,-4.07,-36.31
274.0,0.0,-0.0,0.0,156.05,-46.37,-51.72,57.0,-4.07,-36.31
274.0,0.0,-0.0,0.0,156.05,-46.37,-51.72,57.0,-4.07,-36.31
274.0,0.0,-0.0,0.0,156.05,-46.37,-51.72,56.15,-3.81,-72.72
274.0,0.0,0.0,-0.0,156.07,-46.35,-51.74,56.15,-3.81,-72.72
274.0,0.0,0.0,-0.0,156.07,-46.35,-51.74,57.0,-4.1,-36.31
274.0,0.0,0.0,-0.0,156.07,-46.35,-51.74,57.0,-4.1,-36.31
275.0,0.0,0.0,-0.0,156.07,-46.35,-51.74,57.0,-4.1,-36.31
275.0,0.0,0.0,-0.0,156.07,-46.35,-51.74,56.16,-3.79,-72.71
275.0,0.0,-0.0,0.0,156.08,-46.36,-51.74,56.16,-3.79,-72.71
275.0,0.0,-0.0,0.0,156.08,-46.36,-51.74,56.99,-4.08,-36.3
275.0,0.0,-0.0,0.0,156.08,-46.36,-51.74,56.99,-4.08,-36.3
275.0,0.0,-0.0,0.0,156.08,-46.36,-51.74,56.99,-4.08,-36.3
275.0,0.0,-0.0,0.0,156.08,-46.36,-51.74,56.15,-3.79,-72.71
275.0,0.0,0.0,-0.0,156.1,-46.33,-51.76,56.15,-3.79,-72.71
275.0,0.0,0.0,-0.0,156.1,-46.33,-51.76,57.0,-4.08,-36.3
275.0,0.0,0.0,-0.0,156.1,-46.33,-51.76,57.0,-4.08,-36.3
275.0,0.0,0.0,-0.0,156.1,-46.33,-51.76,57.0,-4.08,-36.3
275.0,0.0,0.0,-0.0,156.1,-46.33,-51.76,56.15,-3.78,-72.71
275.0,0.0,0.0,-0.0,156.11,-46.33,-51.78,56.15,-3.78,-72.71
275.0,0.0,0.0,-0.0,156.11,-46.33,-51.78,57.01,-4.06,-36.31
275.0,0.0,0.0,-0.0,156.11,-46.33,-51.78,57.01,-4.06,-36.31
275.0,0.0,0.0,-0.0,156.11,-46.33,-51.78,57.01,-4.06,-36.31
275.0,0.0,0.0,-0.0,156.11,-46.33,-51.78,56.14,-3.78,-72.72
275.0,0.0,0.0,0.0,156.13,-46.33,-51.77,56.14,-3.78,-72.72
275.0,0.0,0.0,0.0,156.13,-46.33,-51.77,57.0,-4.06,-36.31
275.0,0.0,0.0,0.0,156.13,-46.33,-51.77,57.0,-4.06,-36.31
275.0,0.0,0.0,0.0,156.13,-46.33,-51.77,57.0,-4.06,-36.31
275.0,0.0,0.0,0.0,156.13,-46.33,-51.77,56.15,-3.77,-72.72
275.0,-0.0,0.0,0.0,156.11,-46.33,-51.76,56.15,-3.77,-72.72
275.0,-0.0,0.0,0.0,156.11,-46.33,-51.76,57.0,-4.07,-36.31
275.0,-0.0,0.0,0.0,156.11,-46.33,-51.76,57.0,-4.07,-36.31
275.0,-0.0,0.0,0.0,156.11,-46.33,-51.76,56.14,-3.77,-72.72
275.0,-0.0,0.0,0.0,156.11,-46.33,-51.76,56.14,-3.77,-72.72
275.0,0.0,0.0,-0.0,156.13,-46.31,-51.77,56.14,-3.77,-72.72
275.0,0.0,0.0,-0.0,156.13,-46.31,-51.77,57.01,-4.06,-36.31
275.0,0.0,0.0,-0.0,156.13,-46.31,-51.77,57.01,-4.06,-36.31
275.0,0.0,0.0,-0.0,156.13,-46.31,-51.77,56.15,-3.74,-72.71
275.0,0.0,0.0,-0.0,156.13,-46.31,-51.77,56.15,-3.74,-72.71
275.0,0.0,-0.0,-0.0,156.14,-46.32,-51.78,56.15,-3.74,-72.71
275.0,0.0,-0.0,-0.0,156.14,-46.32,-51.78,57.01,-4.03,-36.31
275.0,0.0,-0.0,-0.0,156.14,-46.32,-51.78,57.01,-4.03,-36.31
275.0,0.0,-0.0,-0.0,156.14,-46.32,-51.78,56.14,-3.75,-72.74
275.0,0.0,-0.0,-0.0,156.14,-46.32,-51.78,56.14,-3.75,-72.74
275.0,0.0,0.01,-0.01,156.16,-46.29,-51.82,56.14,-3.75,-72.74
275.0,0.0,0.01,-0.01,156.16,-46.29,-51.82,57.01,-4.03,-36.34
275.0,0.0,0.01,-0.01,156.16,-46.29,-51.82,57.01,-4.03,-36.34
275.0,0.0,0.01,-0.01,156.16,-46.29,-51.82,56.14,-3.74,-72.74
275.0,0.0,0.01,-0.01,156.16,-46.29,-51.82,56.14,-3.74,-72.74
275.0,0.01,-0.0,0.01,156.21,-46.31,-51.77,56.14,-3.74,-72.74
275.0,0.01,-0.0,0.01,156.21,-46.31,-51.77,57.02,-4.03,-36.33
275.0,0.01,-0.0,0.01,156.21,-46.31,-51.77,57.02,-4.03,-36.33
275.0,0.01,-0.0,0.01,156.21,-46.31,-51.77,56.15,-3.76,-72.73
275.0,0.01,-0.0,0.01,156.21,-46.31,-51.77,56.15,-3.76,-72.73
275.0,0.0,-0.0,0.01,156.24,-46.32,-51.73,56.15,-3.76,-72.73
275.0,0.0,-0.0,0.01,156.24,-46.32,-51.73,57.02,-4.09,-36.31
276.0,0.0,-0.0,0.01,156.24,-46.32,-51.73,57.02,-4.09,-36.31
276.0,0.0,-0.0,0.01,156.24,-46.32,-51.73,56.15,-3.77,-72.72
276.0,0.0,-0.0,0.01,156.24,-46.32,-51.73,56.15,-3.77,-72.72
276.0,0.0,0.0,0.0,156.24,-46.31,-51.72,56.15,-3.77,-72.72
276.0,0.0,0.0,0.0,156.24,-46.31,-51.72,57.03,-4.02,-36.31
276.0,0.0,0.0,0.0,156.24,-46.31,-51.72,57.03,-4.02,-36.31
276.0,0.0,0.0,0.0,156.24,-46.31,-51.72,56.16,-3.72,-72.71
276.0,0.0,0.0,0.0,156.24,-46.31,-51.72,56.16,-3.72,-72.71
276.0,0.01,-0.01,0.01,156.27,-46.35,-51.67,56.16,-3.72,-72.71
276.0,0.01,-0.01,0.01,156.27,-46.35,-51.67,57.03,-4.0,-36.32
276.0,0.01,-0.01,0.01,156.27,-46.35,-51.67,57.03,-4.0,-36.32
276.0,0.01,-0.01,0.01,156.27,-46.35,-51.67,56.15,-3.72,-72.72
276.0,0.01,-0.01,0.01,156.27,-46.35,-51.67,56.15,-3.72,-72.72
276.0,0.0,0.0,-0.01,156.27,-46.32,-51.71,56.15,-3.72,-72.72
276.0,0.0,0.0,-0.01,156.27,-46.32,-51.71,57.02,-3.97,-36.32
276.0,0.0,0.0,-0.01,156.27,-46.32,-51.71,57.02,-3.97,-36.32
276.0,0.0,0.0,-0.01,156.27,-46.32,-51.71,56.15,-3.66,-72.73
276.0,0.0,0.0,-0.01,156.27,-46.32,-51.71,56.15,-3.66,-72.73
276.0,0.0,0.0,0.0,156.3,-46.31,-51.7,56.15,-3.66,-72.73
276.0,0.0,0.0,0.0,156.3,-46.31,-51.7,57.03,-3.93,-36.32
276.0,0.0,0.0,0.0,156.3,-46.31,-51.7,56.14,-3.63,-72.72
276.0,0.0,0.0,0.0,156.3,-46.31,-51.7,56.14,-3.63,-72.72
276.0,0.0,-0.01,0.01,156.31,-46.35,-51.64,56.14,-3.63,-72.72
276.0,0.0,-0.01,0.01,156.31,-46.35,-51.64,57.01,-3.99,-36.32
276.0,0.0,-0.01,0.01,156.31,-46.35,-51.64,56.12,-3.69,-72.72
276.0,0.0,-0.01,0.01,156.31,-46.35,-51.64,56.12,-3.69,-72.72
276.0,0.0,-0.01,0.01,156.31,-46.35,-51.64,56.12,-3.69,-72.72
276.0,0.0,-0.01,0.01,156.31,-46.35,-51.64,56.14,-3.63,-72.74
276.0,0.0,0.0,-0.01,156.34,-46.33,-51.74,56.14,-3.63,-72.74
276.0,0.0,0.0,-0.01,156.34,-46.33,-51.74,57.03,-3.9,-36.33
276.0,0.0,0.0,-0.01,156.34,-46.33,-51.74,57.03,-3.9,-36.33
276.0,0.0,0.0,-0.01,156.34,-46.33,-51.74,56.13,-3.57,-72.77
276.0,0.01,0.0,0.0,156.37,-46.32,-51.72,56.13,-3.57,-72.77
276.0,0.01,0.0,0.0,156.37,-46.32,-51.72,56.88,-3.94,-36.35
276.0,0.01,0.0,0.0,156.37,-46.32,-51.72,56.88,-3.94,-36.35
276.0,0.01,0.0,0.0,156.37,-46.32,-51.72,56.88,-3.94,-36.35
276.0,0.01,0.0,0.0,156.37,-46.32,-51.72,56.13,-3.62,-72.76
276.0,-0.0,-0.0,-0.0,156.36,-46.33,-51.74,56.13,-3.62,-72.76
276.0,-0.0,-0.0,-0.0,156.36,-46.33,-51.74,56.87,-3.99,-36.34
276.0,-0.0,-0.0,-0.0,156.36,-46.33,-51.74,56.87,-3.99,-36.34
276.0,-0.0,-0.0,-0.0,156.36,-46.33,-51.74,56.87,-3.99,-36.34
276.0,-0.0,-0.0,-0.0,156.36,-46.33,-51.74,56.12,-3.65,-72.78
276.0,0.0,0.0,-0.01,156.37,-46.32,-51.82,56.12,-3.65,-72.78
276.0,0.0,0.0,-0.01,156.37,-46.32,-51.82,56.87,-4.0,-36.36
276.0,0.0,0.0,-0.01,156.37,-46.32,-51.82,56.87,-4.0,-36.36
277.0,0.0,0.0,-0.01,156.37,-46.32,-51.82,56.87,-4.0,-36.36
277.0,0.0,0.0,-0.01,156.37,-46.32,-51.82,56.12,-3.59,-72.81
277.0,0.01,0.0,-0.02,156.45,-46.31,-51.92,56.12,-3.59,-72.81
277.0,0.01,0.0,-0.02,156.45,-46.31,-51.92,56.89,-3.94,-36.4
277.0,0.01,0.0,-0.02,156.45,-46.31,-51.92,56.89,-3.94,-36.4
277.0,0.01,0.0,-0.02,156.45,-46.31,-51.92,56.89,-3.94,-36.4
277.0,0.01,0.0,-0.02,156.45,-46.31,-51.92,56.12,-3.59,-72.85
277.0,0.0,-0.01,0.01,156.45,-46.36,-51.88,56.12,-3.59,-72.85
277.0,0.0,-0.01,0.01,156.45,-46.36,-51.88,56.88,-3.97,-36.43
277.0,0.0,-0.01,0.01,156.45,-46.36,-51.88,56.88,-3.97,-36.43
277.0,0.0,-0.01,0.01,156.45,-46.36,-51.88,56.88,-3.97,-36.43
277.0,0.0,-0.01,0.01,156.45,-46.36,-51.88,56.12,-3.63,-72.84
277.0,0.01,0.0,0.0,156.5,-46.36,-51.86,56.12,-3.63,-72.84
277.0,0.01,0.0,0.0,156.5,-46.36,-51.86,56.88,-4.0,-36.42
277.0,0.01,0.0,0.0,156.5,-46.36,-51.86,56.88,-4.0,-36.42
277.0,0.01,0.0,0.0,156.5,-46.36,-51.86,56.12,-3.62,-72.83
277.0,0.01,0.0,0.0,156.5,-46.36,-51.86,56.12,-3.62,-72.83
277.0,0.01,0.02,-0.02,156.53,-46.26,-52.0,56.12,-3.62,-72.83
277.0,0.01,0.02,-0.02,156.53,-46.26,-52.0,56.88,-3.93,-36.41
277.0,0.01,0.02,-0.02,156.53,-46.26,-52.0,56.13,-3.56,-72.82
277.0,0.01,0.02,-0.02,156.53,-46.26,-52.0,56.13,-3.56,-72.82
277.0,0.01,0.02,-0.02,156.53,-46.26,-52.0,56.13,-3.56,-72.82
277.0,0.01,0.0,0.01,156.59,-46.26,-51.94,56.13,-3.56,-72.82
277.0,0.01,0.0,0.01,156.59,-46.26,-51.94,56.9,-3.94,-36.38
277.0,0.01,0.0,0.01,156.59,-46.26,-51.94,56.13,-3.59,-72.79
277.0,0.01,0.0,0.01,156.59,-46.26,-51.94,56.13,-3.59,-72.79
277.0,0.0,-0.0,0.0,156.6,-46.27,-51.92,56.13,-3.59,-72.79
277.0,0.0,-0.0,0.0,156.6,-46.27,-51.92,56.89,-3.95,-36.36
277.0,0.0,-0.0,0.0,156.6,-46.27,-51.92,56.89,-3.95,-36.36
277.0,0.0,-0.0,0.0,156.6,-46.27,-51.92,56.12,-3.58,-72.78
277.0,0.0,-0.0,0.0,156.6,-46.27,-51.92,56.12,-3.58,-72.78
277.0,0.0,-0.02,0.01,156.61,-46.36,-51.89,56.12,-3.58,-72.78
277.0,0.0,-0.02,0.01,156.61,-46.36,-51.89,56.89,-3.95,-36.38
277.0,0.0,-0.02,0.01,156.61,-46.36,-51.89,56.89,-3.95,-36.38
277.0,0.0,-0.02,0.01,156.61,-46.36,-51.89,56.11,-3.65,-72.82
277.0,0.0,-0.02,0.01,156.61,-46.36,-51.89,56.11,-3.65,-72.82
277.0,-0.0,-0.04,0.01,156.6,-46.58,-51.85,56.11,-3.65,-72.82
277.0,-0.0,-0.04,0.01,156.6,-46.58,-51.85,56.88,-4.08,-36.45
277.0,-0.0,-0.04,0.01,156.6,-46.58,-51.85,56.88,-4.08,-36.45
277.0,-0.0,-0.04,0.01,156.6,-46.58,-51.85,56.09,-3.8,-72.95
277.0,-0.0,-0.04,0.01,156.6,-46.58,-51.85,56.09,-3.8,-72.95
277.0,-0.01,-0.04,0.02,156.54,-46.81,-51.76,56.09,-3.8,-72.95
277.0,-0.01,-0.04,0.02,156.54,-46.81,-51.76,56.84,-4.25,-36.61
277.0,-0.01,-0.04,0.02,156.54,-46.81,-51.76,56.84,-4.25,-36.61
277.0,-0.01,-0.04,0.02,156.54,-46.81,-51.76,56.06,-4.0,-73.09
277.0,-0.01,-0.04,0.02,156.54,-46.81,-51.76,56.06,-4.0,-73.09
277.0,-0.01,-0.04,0.04,156.5,-47.09,-51.49,56.06,-4.0,-73.09
277.0,-0.01,-0.04,0.04,156.5,-47.09,-51.49,56.82,-4.52,-36.75
278.0,-0.01,-0.04,0.04,156.5,-47.09,-51.49,56.82,-4.52,-36.75
278.0,-0.01,-0.04,0.04,156.5,-47.09,-51.49,52.09,-4.07,-72.85
278.0,-0.01,-0.04,0.04,156.5,-47.09,-51.49,52.09,-4.07,-72.85
278.0,-0.82,-0.08,0.04,151.67,-47.54,-51.25,52.09,-4.07,-72.85
278.0,-0.82,-0.08,0.04,151.67,-47.54,-51.25,43.7,-3.96,-35.8
278.0,-0.82,-0.08,0.04,151.67,-47.54,-51.25,43.7,-3.96,-35.8
278.0,-0.82,-0.08,0.04,151.67,-47.54,-51.25,42.46,-3.88,-72.24
278.0,-0.82,-0.08,0.04,151.67,-47.54,-51.25,42.46,-3.88,-72.24
278.0,-1.92,0.18,0.02,140.88,-46.51,-51.14,42.46,-3.88,-72.24
278.0,-1.92,0.18,0.02,140.88,-46.51,-51.14,39.15,-4.07,-35.57
278.0,-1.92,0.18,0.02,140.88,-46.51,-51.14,35.66,-3.73,-71.93
278.0,-1.92,0.18,0.02,140.88,-46.51,-51.14,35.66,-3.73,-71.93
278.0,-1.92,0.18,0.02,140.88,-46.51,-51.14,35.66,-3.73,-71.93
278.0,-0.41,-0.07,0.02,138.52,-46.92,-51.04,35.66,-3.73,-71.93
278.0,-0.41,-0.07,0.02,138.52,-46.92,-51.04,32.06,-3.92,-35.3
278.0,-0.41,-0.07,0.02,138.52,-46.92,-51.04,27.76,-3.41,-71.66
278.0,-0.41,-0.07,0.02,138.52,-46.92,-51.04,27.76,-3.41,-71.66
278.0,-0.41,-0.07,0.02,138.52,-46.92,-51.04,27.76,-3.41,-71.66
278.0,-2.1,0.15,0.02,126.48,-46.05,-50.94,27.76,-3.41,-71.66
278.0,-2.1,0.15,0.02,126.48,-46.05,-50.94,22.61,-3.49,-34.99
278.0,-2.1,0.15,0.02,126.48,-46.05,-50.94,17.59,-2.98,-71.37
278.0,-2.1,0.15,0.02,126.48,-46.05,-50.94,17.59,-2.98,-71.37
278.0,-2.1,0.15,0.02,126.48,-46.05,-50.94,17.59,-2.98,-71.37
278.0,-1.92,0.08,0.03,114.3,-45.54,-50.77,17.59,-2.98,-71.37
278.0,-1.92,0.08,0.03,114.3,-45.54,-50.77,12.56,-3.12,-34.74
278.0,-1.92,0.08,0.03,114.3,-45.54,-50.77,7.47,-2.62,-71.17
278.0,-1.92,0.08,0.03,114.3,-45.54,-50.77,7.47,-2.62,-71.17
278.0,-1.92,0.08,0.03,114.3,-45.54,-50.77,7.47,-2.62,-71.17
278.0,-0.67,-0.02,0.01,110.44,-45.64,-50.73,7.47,-2.62,-71.17
278.0,-0.67,-0.02,0.01,110.44,-45.64,-50.73,3.24,-2.77,-34.58
278.0,-0.67,-0.02,0.01,110.44,-45.64,-50.73,0.62,-2.41,-71.11
278.0,-0.67,-0.02,0.01,110.44,-45.64,-50.73,0.62,-2.41,-71.11
278.0,-0.67,-0.02,0.01,110.44,-45.64,-50.73,0.62,-2.41,-71.11
278.0,-1.44,0.07,0.01,102.3,-45.23,-50.66,0.62,-2.41,-71.11
278.0,-1.44,0.07,0.01,102.3,-45.23,-50.66,-6.54,-2.2,-34.49
278.0,-1.44,0.07,0.01,102.3,-45.23,-50.66,-8.49,-1.93,-71.05
278.0,-1.44,0.07,0.01,102.3,-45.23,-50.66,-8.49,-1.93,-71.05
278.0,-1.44,0.07,0.01,102.3,-45.23,-50.66,-8.49,-1.93,-71.05
278.0,-0.83,-0.02,0.01,97.52,-45.35,-50.6,-8.49,-1.93,-71.05
278.0,-0.83,-0.02,0.01,97.52,-45.35,-50.6,-10.46,-2.29,-34.47
278.0,-0.83,-0.02,0.01,97.52,-45.35,-50.6,-11.87,-2.1,-71.03
278.0,-0.83,-0.02,0.01,97.52,-45.35,-50.6,-11.87,-2.1,-71.03
278.0,-0.83,-0.02,0.01,97.52,-45.35,-50.6,-11.87,-2.1,-71.03
278.0,-0.0,-0.01,0.0,97.51,-45.41,-50.59,-11.87,-2.1,-71.03
278.0,-0.0,-0.01,0.0,97.51,-45.41,-50.59,-11.99,-2.37,-34.47
278.0,-0.0,-0.01,0.0,97.51,-45.41,-50.59,-11.87,-2.2,-71.05
278.0,-0.0,-0.01,0.0,97.51,-45.41,-50.59,-11.87,-2.2,-71.05
278.0,0.02,0.04,-0.01,97.59,-45.17,-50.65,-11.87,-2.2,-71.05
279.0,0.02,0.04,-0.01,97.59,-45.17,-50.65,-11.97,-2.3,-34.49
279.0,0.02,0.04,-0.01,97.59,-45.17,-50.65,-11.97,-2.3,-34.49
279.0,0.02,0.04,-0.01,97.59,-45.17,-50.65,-11.81,-2.03,-71.12
279.0,0.02,0.04,-0.01,97.59,-45.17,-50.65,-11.81,-2.03,-71.12
279.0,0.03,0.0,-0.03,97.76,-45.17,-50.83,-11.81,-2.03,-71.12
279.0,0.03,0.0,-0.03,97.76,-45.17,-50.83,-11.91,-2.17,-34.64
279.0,0.03,0.0,-0.03,97.76,-45.17,-50.83,-11.91,-2.17,-34.64
279.0,0.03,0.0,-0.03,97.76,-45.17,-50.83,-11.7,-1.96,-71.32
279.0,0.03,0.0,-0.03,97.76,-45.17,-50.83,-11.7,-1.96,-71.32
279.0,-0.01,-0.03,-0.0,97.71,-45.35,-50.86,-11.7,-1.96,-71.32
279.0,-0.01,-0.03,-0.0,97.71,-45.35,-50.86,-11.9,-2.26,-34.71
279.0,-0.01,-0.03,-0.0,97.71,-45.35,-50.86,-11.72,-2.06,-71.35
279.0,-0.01,-0.03,-0.0,97.71,-45.35,-50.86,-11.72,-2.06,-71.35
279.0,-0.01,-0.03,-0.0,97.71,-45.35,-50.86,-11.72,-2.06,-71.35
279.0,-0.01,-0.06,0.02,97.67,-45.69,-50.74,-11.72,-2.06,-71.35
279.0,-0.01,-0.06,0.02,97.67,-45.69,-50.74,-11.97,-2.44,-34.68
279.0,-0.01,-0.06,0.02,97.67,-45.69,-50.74,-11.77,-2.23,-71.32
279.0,-0.01,-0.06,0.02,97.67,-45.69,-50.74,-11.77,-2.23,-71.32
279.0,-0.01,-0.06,0.02,97.67,-45.69,-50.74,-11.77,-2.23,-71.32
279.0,0.0,-0.0,0.0,97.69,-45.7,-50.73,-11.77,-2.23,-71.32
279.0,0.0,-0.0,0.0,97.69,-45.7,-50.73,-12.01,-2.51,-34.67
279.0,0.0,-0.0,0.0,97.69,-45.7,-50.73,-11.79,-2.19,-71.31
279.0,0.0,-0.0,0.0,97.69,-45.7,-50.73,-11.79,-2.19,-71.31
279.0,0.0,-0.0,0.0,97.69,-45.7,-50.73,-11.79,-2.19,-71.31
279.0,0.01,-0.02,0.01,97.72,-45.8,-50.69,-11.79,-2.19,-71.31
279.0,0.01,-0.02,0.01,97.72,-45.8,-50.69,-12.04,-2.49,-34.64
279.0,0.01,-0.02,0.01,97.72,-45.8,-50.69,-11.84,-2.19,-71.3
279.0,0.01,-0.02,0.01,97.72,-45.8,-50.69,-11.84,-2.19,-71.3
279.0,0.01,-0.02,0.01,97.72,-45.8,-50.69,-11.84,-2.19,-71.3
279.0,0.0,-0.03,0.01,97.75,-45.97,-50.65,-11.84,-2.19,-71.3
279.0,0.0,-0.03,0.01,97.75,-45.97,-50.65,-12.06,-2.51,-34.63
279.0,0.0,-0.03,0.01,97.75,-45.97,-50.65,-11.85,-2.19,-71.29
279.0,0.0,-0.03,0.01,97.75,-45.97,-50.65,-11.85,-2.19,-71.29
279.0,0.0,-0.03,0.01,97.75,-45.97,-50.65,-11.85,-2.19,-71.29
279.0,-0.0,0.01,0.0,97.74,-45.91,-50.64,-11.85,-2.19,-71.29
279.0,-0.0,0.01,0.0,97.74,-45.91,-50.64,-12.08,-2.5,-34.62
279.0,-0.0,0.01,0.0,97.74,-45.91,-50.64,-11.89,-2.18,-71.27
279.0,-0.0,0.01,0.0,97.74,-45.91,-50.64,-11.89,-2.18,-71.27
279.0,-0.0,0.01,0.0,97.74,-45.91,-50.64,-11.89,-2.18,-71.27
279.0,0.0,-0.0,0.01,97.75,-45.93,-50.6,-11.89,-2.18,-71.27
279.0,0.0,-0.0,0.01,97.75,-45.93,-50.6,-12.1,-2.49,-34.6
279.0,0.0,-0.0,0.01,97.75,-45.93,-50.6,-11.89,-2.16,-71.28
279.0,0.0,-0.0,0.01,97.75,-45.93,-50.6,-11.89,-2.16,-71.28
279.0,0.0,-0.0,0.01,97.75,-45.93,-50.6,-11.89,-2.16,-71.28
279.0,-0.0,-0.07,-0.0,97.74,-46.35,-50.63,-11.89,-2.16,-71.28
279.0,-0.0,-0.07,-0.0,97.74,-46.35,-50.63,-12.2,-2.62,-34.55
279.0,-0.0,-0.07,-0.0,97.74,-46.35,-50.63,-11.99,-2.32,-71.21
279.0,-0.0,-0.07,-0.0,97.74,-46.35,-50.63,-11.99,-2.32,-71.21
280.0,-0.0,-0.07,-0.0,97.74,-46.35,-50.63,-12.12,-2.81,-71.06
280.0,-0.01,-0.02,0.0,97.7,-46.46,-50.6,-12.12,-2.81,-71.06
280.0,-0.01,-0.02,0.0,97.7,-46.46,-50.6,-12.32,-2.9,-34.46
280.0,-0.01,-0.02,0.0,97.7,-46.46,-50.6,-12.32,-2.9,-34.46
280.0,-0.01,-0.02,0.0,97.7,-46.46,-50.6,-12.32,-2.9,-34.46
280.0,-0.01,-0.02,0.0,97.7,-46.46,-50.6,-12.16,-2.83,-71.05
280.0,0.0,0.01,-0.0,97.7,-46.37,-50.61,-12.16,-2.83,-71.05
280.0,0.0,0.01,-0.0,97.7,-46.37,-50.61,-12.38,-2.91,-34.45
280.0,0.0,0.01,-0.0,97.7,-46.37,-50.61,-12.38,-2.91,-34.45
280.0,0.0,0.01,-0.0,97.7,-46.37,-50.61,-12.38,-2.91,-34.45
280.0,0.0,0.01,-0.0,97.7,-46.37,-50.61,-12.14,-2.75,-71.09
280.0,0.0,0.01,-0.0,97.72,-46.3,-50.62,-12.14,-2.75,-71.09
280.0,0.0,0.01,-0.0,97.72,-46.3,-50.62,-12.62,-2.66,-34.48
280.0,0.0,0.01,-0.0,97.72,-46.3,-50.62,-12.62,-2.66,-34.48
280.0,0.0,0.01,-0.0,97.72,-46.3,-50.62,-12.62,-2.66,-34.48
280.0,0.0,0.01,-0.0,97.72,-46.3,-50.62,-12.13,-2.65,-71.12
280.0,0.0,0.01,0.0,97.74,-46.26,-50.6,-12.13,-2.65,-71.12
280.0,0.0,0.01,0.0,97.74,-46.26,-50.6,-12.61,-2.57,-34.5
280.0,0.0,0.01,0.0,97.74,-46.26,-50.6,-12.61,-2.57,-34.5
280.0,0.0,0.01,0.0,97.74,-46.26,-50.6,-12.61,-2.57,-34.5
280.0,0.0,0.01,0.0,97.74,-46.26,-50.6,-12.11,-2.59,-71.14
280.0,0.01,0.01,0.0,97.8,-46.22,-50.58,-12.11,-2.59,-71.14
280.0,0.01,0.01,0.0,97.8,-46.22,-50.58,-12.58,-2.51,-34.52
280.0,0.01,0.01,0.0,97.8,-46.22,-50.58,-12.58,-2.51,-34.52
280.0,0.01,0.01,0.0,97.8,-46.22,-50.58,-12.58,-2.51,-34.52
280.0,0.01,0.01,0.0,97.8,-46.22,-50.58,-12.09,-2.56,-71.13
280.0,0.01,0.01,-0.0,97.83,-46.17,-50.59,-12.09,-2.56,-71.13
280.0,0.01,0.01,-0.0,97.83,-46.17,-50.59,-12.56,-2.49,-34.51
280.0,0.01,0.01,-0.0,97.83,-46.17,-50.59,-12.56,-2.49,-34.51
280.0,0.01,0.01,-0.0,97.83,-46.17,-50.59,-12.56,-2.49,-34.51
280.0,0.01,0.01,-0.0,97.83,-46.17,-50.59,-12.08,-2.52,-71.17
280.0,0.01,0.01,-0.0,97.86,-46.14,-50.6,-12.08,-2.52,-71.17
280.0,0.01,0.01,-0.0,97.86,-46.14,-50.6,-12.55,-2.46,-34.55
280.0,0.01,0.01,-0.0,97.86,-46.14,-50.6,-12.55,-2.46,-34.55
280.0,0.01,0.01,-0.0,97.86,-46.14,-50.6,-12.55,-2.46,-34.55
280.0,0.01,0.01,-0.0,97.86,-46.14,-50.6,-12.08,-2.47,-71.21
280.0,0.0,0.02,-0.01,97.89,-46.04,-50.66,-12.08,-2.47,-71.21
280.0,0.0,0.02,-0.01,97.89,-46.04,-50.66,-12.53,-2.39,-34.61
280.0,0.0,0.02,-0.01,97.89,-46.04,-50.66,-12.53,-2.39,-34.61
280.0,0.0,0.02,-0.01,97.89,-46.04,-50.66,-12.05,-2.46,-71.25
280.0,0.0,0.02,-0.01,97.89,-46.04,-50.66,-12.05,-2.46,-71.25
280.0,0.0,-0.01,0.0,97.89,-46.08,-50.64,-12.05,-2.46,-71.25
280.0,0.0,-0.01,0.0,97.89,-46.08,-50.64,-12.53,-2.36,-34.63
280.0,0.0,-0.01,0.0,97.89,-46.08,-50.64,-12.53,-2.36,-34.63
280.0,0.0,-0.01,0.0,97.89,-46.08,-50.64,-12.07,-2.45,-71.25
280.0,0.0,-0.01,0.0,97.89,-46.08,-50.64,-12.07,-2.45,-71.25
280.0,0.01,-0.01,-0.0,97.95,-46.13,-50.65,-12.07,-2.45,-71.25
280.0,0.01,-0.01,-0.0,97.95,-46.13,-50.65,-12.53,-2.34,-34.63
281.0,0.01,-0.01,-0.0,97.95,-46.13,-50.65,-12.53,-2.34,-34.63
281.0,0.01,-0.01,-0.0,97.95,-46.13,-50.65,-12.04,-2.47,-71.25
281.0,0.01,-0.01,-0.0,97.95,-46.13,-50.65,-12.04,-2.47,-71.25
281.0,-0.01,0.02,0.01,97.87,-46.04,-50.58,-12.04,-2.47,-71.25
281.0,-0.01,0.02,0.01,97.87,-46.04,-50.58,-12.52,-2.35,-34.63
281.0,-0.01,0.02,0.01,97.87,-46.04,-50.58,-12.52,-2.35,-34.63
281.0,-0.01,0.02,0.01,97.87,-46.04,-50.58,-12.07,-2.43,-71.24
281.0,-0.01,0.02,0.01,97.87,-46.04,-50.58,-12.07,-2.43,-71.24
281.0,0.01,-0.01,-0.0,97.9,-46.12,-50.59,-12.07,-2.43,-71.24
281.0,0.01,-0.01,-0.0,97.9,-46.12,-50.59,-12.52,-2.3,-34.62
281.0,0.01,-0.01,-0.0,97.9,-46.12,-50.59,-12.52,-2.3,-34.62
281.0,0.01,-0.01,-0.0,97.9,-46.12,-50.59,-12.01,-2.55,-71.23
281.0,0.01,-0.01,-0.0,97.9,-46.12,-50.59,-12.01,-2.55,-71.23
281.0,0.01,-0.01,-0.0,97.9,-46.12,-50.59,-12.01,-2.55,-71.23
281.0,-0.01,0.07,0.02,97.8,-45.61,-50.47,-12.01,-2.55,-71.23
281.0,-0.01,0.07,0.02,97.8,-45.61,-50.47,-12.48,-2.29,-34.63
281.0,-0.01,0.07,0.02,97.8,-45.61,-50.47,-12.02,-2.33,-71.26
281.0,-0.01,0.07,0.02,97.8,-45.61,-50.47,-12.02,-2.33,-71.26
281.0,0.0,0.03,0.0,97.83,-45.44,-50.44,-12.02,-2.33,-71.26
281.0,0.0,0.03,0.0,97.83,-45.44,-50.44,-12.43,-2.02,-34.71
281.0,0.0,0.03,0.0,97.83,-45.44,-50.44,-12.43,-2.02,-34.71
281.0,0.0,0.03,0.0,97.83,-45.44,-50.44,-11.97,-2.11,-71.35
281.0,0.0,0.03,0.0,97.83,-45.44,-50.44,-11.97,-2.11,-71.35
281.0,0.01,-0.02,0.0,97.88,-45.53,-50.42,-11.97,-2.11,-71.35
281.0,0.01,-0.02,0.0,97.88,-45.53,-50.42,-12.38,-1.94,-34.73
281.0,0.01,-0.02,0.0,97.88,-45.53,-50.42,-12.38,-1.94,-34.73
281.0,0.01,-0.02,0.0,97.88,-45.53,-50.42,-11.9,-2.11,-71.34
281.0,0.01,-0.02,0.0,97.88,-45.53,-50.42,-11.9,-2.11,-71.34
281.0,0.01,0.02,0.01,97.93,-45.4,-50.39,-11.9,-2.11,-71.34
281.0,0.01,0.02,0.01,97.93,-45.4,-50.39,-12.32,-1.79,-34.74
281.0,0.01,0.02,0.01,97.93,-45.4,-50.39,-12.32,-1.79,-34.74
281.0,0.01,0.02,0.01,97.93,-45.4,-50.39,-11.75,-1.94,-71.38
281.0,0.01,0.02,0.01,97.93,-45.4,-50.39,-11.75,-1.94,-71.38
281.0,2.07,-0.07,-0.02,109.79,-45.81,-50.52,-11.75,-1.94,-71.38
281.0,2.07,-0.07,-0.02,109.79,-45.81,-50.52,-5.27,-2.02,-34.83
281.0,2.07,-0.07,-0.02,109.79,-45.81,-50.52,-3.58,-2.28,-71.48
281.0,2.07,-0.07,-0.02,109.79,-45.81,-50.52,-3.58,-2.28,-71.48
281.0,2.07,-0.07,-0.02,109.79,-45.81,-50.52,-3.58,-2.28,-71.48
281.0,0.02,-0.02,-0.0,109.88,-45.93,-50.53,-3.58,-2.28,-71.48
281.0,0.02,-0.02,-0.0,109.88,-45.93,-50.53,-3.85,-2.2,-34.86
281.0,0.02,-0.02,-0.0,109.88,-45.93,-50.53,-3.58,-2.39,-71.48
281.0,0.02,-0.02,-0.0,109.88,-45.93,-50.53,-3.58,-2.39,-71.48
281.0,0.02,-0.02,-0.0,109.88,-45.93,-50.53,-3.58,-2.39,-71.48
281.0,-0.0,0.02,-0.01,109.87,-45.82,-50.57,-3.58,-2.39,-71.48
281.0,-0.0,0.02,-0.01,109.87,-45.82,-50.57,-3.86,-2.13,-34.87
281.0,-0.0,0.02,-0.01,109.87,-45.82,-50.57,-3.61,-2.31,-71.5
281.0,-0.0,0.02,-0.01,109.87,-45.82,-50.57,-3.61,-2.31,-71.5
281.0,-0.0,0.02,-0.01,109.87,-45.82,-50.57,-3.61,-2.31,-71.5
282.0,-0.01,-0.04,0.02,109.84,-46.04,-50.45,-3.61,-2.31,-71.5
282.0,-0.01,-0.04,0.02,109.84,-46.04,-50.45,-3.89,-2.22,-34.84
282.0,-0.01,-0.04,0.02,109.84,-46.04,-50.45,-3.65,-2.52,-71.42
282.0,-0.01,-0.04,0.02,109.84,-46.04,-50.45,-3.65,-2.52,-71.42
282.0,-0.01,-0.04,0.02,109.84,-46.04,-50.45,-3.65,-2.52,-71.42
282.0,0.01,0.01,-0.0,109.88,-45.98,-50.47,-3.65,-2.52,-71.42
282.0,0.01,0.01,-0.0,109.88,-45.98,-50.47,-3.87,-2.38,-34.78
282.0,0.01,0.01,-0.0,109.88,-45.98,-50.47,-3.65,-2.6,-71.39
282.0,0.01,0.01,-0.0,109.88,-45.98,-50.47,-3.65,-2.6,-71.39
282.0,0.01,0.01,-0.0,109.88,-45.98,-50.47,-3.65,-2.6,-71.39
282.0,0.01,0.01,-0.0,109.93,-45.9,-50.48,-3.65,-2.6,-71.39
282.0,0.01,0.01,-0.0,109.93,-45.9,-50.48,-3.85,-2.33,-34.78
282.0,0.01,0.01,-0.0,109.93,-45.9,-50.48,-3.64,-2.56,-71.4
282.0,0.01,0.01,-0.0,109.93,-45.9,-50.48,-3.64,-2.56,-71.4
282.0,0.01,0.01,-0.0,109.93,-45.9,-50.48,-3.64,-2.56,-71.4
282.0,0.31,0.0,-0.01,111.82,-45.9,-50.54,-3.64,-2.56,-71.4
282.0,0.31,0.0,-0.01,111.82,-45.9,-50.54,-3.65,-2.29,-34.77
282.0,0.31,0.0,-0.01,111.82,-45.9,-50.54,-2.27,-2.56,-71.43
282.0,0.31,0.0,-0.01,111.82,-45.9,-50.54,-2.27,-2.56,-71.43
282.0,0.31,0.0,-0.01,111.82,-45.9,-50.54,-2.27,-2.56,-71.43
282.0,0.0,-0.04,0.0,111.85,-46.17,-50.51,-2.27,-2.56,-71.43
282.0,0.0,-0.04,0.0,111.85,-46.17,-50.51,-1.46,-2.28,-34.82
282.0,0.0,-0.04,0.0,111.85,-46.17,-50.51,-1.22,-2.5,-71.44
282.0,0.0,-0.04,0.0,111.85,-46.17,-50.51,-1.22,-2.5,-71.44
282.0,0.0,-0.04,0.0,111.85,-46.17,-50.51,-1.22,-2.5,-71.44
282.0,0.0,-0.04,0.0,111.85,-46.17,-50.51,-1.26,-2.44,-71.44
282.0,0.01,0.03,-0.0,111.89,-45.96,-50.53,-1.26,-2.44,-71.44
282.0,0.01,0.03,-0.0,111.89,-45.96,-50.53,-1.5,-2.25,-34.82
282.0,0.01,0.03,-0.0,111.89,-45.96,-50.53,-1.5,-2.25,-34.82
282.0,0.01,0.03,-0.0,111.89,-45.96,-50.53,-1.26,-2.31,-71.45
282.0,0.01,0.03,-0.0,111.89,-45.96,-50.53,-1.26,-2.31,-71.45
282.0,-0.0,0.01,-0.0,111.88,-45.92,-50.55,-1.26,-2.31,-71.45
282.0,-0.0,0.01,-0.0,111.88,-45.92,-50.55,-1.5,-2.16,-34.84
282.0,-0.0,0.01,-0.0,111.88,-45.92,-50.55,-1.5,-2.16,-34.84
282.0,-0.0,0.01,-0.0,111.88,-45.92,-50.55,-1.26,-2.3,-71.45
282.0,-0.0,0.01,-0.0,111.88,-45.92,-50.55,-1.26,-2.3,-71.45
282.0,-0.0,0.0,-0.0,111.86,-45.91,-50.58,-1.26,-2.3,-71.45
282.0,-0.0,0.0,-0.0,111.86,-45.91,-50.58,-1.49,-2.18,-34.84
282.0,-0.0,0.0,-0.0,111.86,-45.91,-50.58,-1.49,-2.18,-34.84
282.0,-0.0,0.0,-0.0,111.86,-45.91,-50.58,-1.26,-2.34,-71.46
282.0,-0.0,0.0,-0.0,111.86,-45.91,-50.58,-1.26,-2.34,-71.46
282.0,-0.0,-0.0,0.0,111.85,-45.92,-50.58,-1.26,-2.34,-71.46
282.0,-0.0,-0.0,0.0,111.85,-45.92,-50.58,-1.49,-2.22,-34.84
282.0,-0.0,-0.0,0.0,111.85,-45.92,-50.58,-1.49,-2.22,-34.84
282.0,-0.0,-0.0,0.0,111.85,-45.92,-50.58,-1.28,-2.32,-71.47
282.0,-0.0,-0.0,0.0,111.85,-45.92,-50.58,-1.28,-2.32,-71.47
282.0,-0.0,-0.0,0.0,111.85,-45.92,-50.58,-1.28,-2.32,-71.47
283.0,0.0,0.0,0.0,111.87,-45.91,-50.58,-1.28,-2.32,-71.47
283.0,0.0,0.0,0.0,111.87,-45.91,-50.58,-1.5,-2.19,-34.86
283.0,0.0,0.0,0.0,111.87,-45.91,-50.58,-1.29,-2.3,-71.48
283.0,0.0,0.0,0.0,111.87,-45.91,-50.58,-1.29,-2.3,-71.48
283.0,0.0,0.0,0.0,111.87,-45.91,-50.58,-1.29,-2.3,-71.48
283.0,0.0,-0.01,-0.0,111.88,-45.95,-50.59,-1.29,-2.3,-71.48
283.0,0.0,-0.01,-0.0,111.88,-45.95,-50.59,-1.51,-2.19,-34.86
283.0,0.0,-0.01,-0.0,111.88,-45.95,-50.59,-1.3,-2.33,-71.47
283.0,0.0,-0.01,-0.0,111.88,-45.95,-50.59,-1.3,-2.33,-71.47
283.0,0.0,-0.01,-0.0,111.88,-45.95,-50.59,-1.3,-2.33,-71.47
283.0,0.01,-0.01,0.0,111.93,-46.0,-50.59,-1.3,-2.33,-71.47
283.0,0.01,-0.01,0.0,111.93,-46.0,-50.59,-1.54,-2.28,-34.84
283.0,0.01,-0.01,0.0,111.93,-46.0,-50.59,-1.33,-2.4,-71.47
283.0,0.01,-0.01,0.0,111.93,-46.0,-50.59,-1.33,-2.4,-71.47
283.0,0.01,-0.01,0.0,111.93,-46.0,-50.59,-1.33,-2.4,-71.47
283.0,0.01,-0.0,-0.0,111.96,-46.03,-50.61,-1.33,-2.4,-71.47
283.0,0.01,-0.0,-0.0,111.96,-46.03,-50.61,-1.53,-2.26,-34.86
283.0,0.01,-0.0,-0.0,111.96,-46.03,-50.61,-1.32,-2.39,-71.49
283.0,0.01,-0.0,-0.0,111.96,-46.03,-50.61,-1.32,-2.39,-71.49
283.0,0.01,-0.0,-0.0,111.96,-46.03,-50.61,-1.32,-2.39,-71.49
283.0,0.01,-0.0,-0.0,111.96,-46.03,-50.61,-1.34,-2.44,-71.47
283.0,0.0,-0.01,0.0,111.99,-46.13,-50.58,-1.34,-2.44,-71.47
283.0,0.0,-0.01,0.0,111.99,-46.13,-50.58,-1.55,-2.34,-34.83
283.0,0.0,-0.01,0.0,111.99,-46.13,-50.58,-1.55,-2.34,-34.83
283.0,0.0,-0.01,0.0,111.99,-46.13,-50.58,-1.38,-2.5,-71.44
283.0,0.0,-0.01,0.0,111.99,-46.13,-50.58,-1.38,-2.5,-71.44
283.0,0.0,-0.02,-0.01,111.99,-46.24,-50.62,-1.38,-2.5,-71.44
283.0,0.0,-0.02,-0.01,111.99,-46.24,-50.62,-1.58,-2.41,-34.8
283.0,0.0,-0.02,-0.01,111.99,-46.24,-50.62,-1.58,-2.41,-34.8
283.0,0.0,-0.02,-0.01,111.99,-46.24,-50.62,-1.41,-2.57,-71.44
283.0,0.0,-0.02,0.0,112.0,-46.34,-50.61,-1.41,-2.57,-71.44
283.0,0.0,-0.02,0.0,112.0,-46.34,-50.61,-1.61,-2.45,-34.81
283.0,0.0,-0.02,0.0,112.0,-46.34,-50.61,-1.61,-2.45,-34.81
283.0,0.0,-0.02,0.0,112.0,-46.34,-50.61,-1.61,-2.45,-34.81
283.0,0.0,-0.02,0.0,112.0,-46.34,-50.61,-1.43,-2.62,-71.44
283.0,0.0,0.01,0.0,112.0,-46.3,-50.61,-1.43,-2.62,-71.44
283.0,0.0,0.01,0.0,112.0,-46.3,-50.61,-1.62,-2.5,-34.8
283.0,0.0,0.01,0.0,112.0,-46.3,-50.61,-1.62,-2.5,-34.8
283.0,0.0,0.01,0.0,112.0,-46.3,-50.61,-1.62,-2.5,-34.8
283.0,0.0,0.01,0.0,112.0,-46.3,-50.61,-1.43,-2.63,-71.44
283.0,0.0,-0.0,0.0,112.03,-46.33,-50.6,-1.43,-2.63,-71.44
283.0,0.0,-0.0,0.0,112.03,-46.33,-50.6,-1.62,-2.52,-34.8
283.0,0.0,-0.0,0.0,112.03,-46.33,-50.6,-1.62,-2.52,-34.8
283.0,0.0,-0.0,0.0,112.03,-46.33,-50.6,-1.62,-2.52,-34.8
283.0,0.0,-0.0,0.0,112.03,-46.33,-50.6,-1.44,-2.67,-71.44
283.0,0.0,-0.03,0.0,112.04,-46.5,-50.57,-1.44,-2.67,-71.44
283.0,0.0,-0.03,0.0,112.04,-46.5,-50.57,-1.63,-2.55,-34.8
284.0,0.0,-0.03,0.0,112.04,-46.5,-50.57,-1.63,-2.55,-34.8
284.0,0.0,-0.03,0.0,112.04,-46.5,-50.57,-1.63,-2.55,-34.8
284.0,0.0,-0.03,0.0,112.04,-46.5,-50.57,-1.45,-2.66,-71.44
284.0,0.0,0.01,0.0,112.04,-46.44,-50.56,-1.45,-2.66,-71.44
284.0,0.0,0.01,0.0,112.04,-46.44,-50.56,-1.64,-2.57,-34.8
284.0,0.0,0.01,0.0,112.04,-46.44,-50.56,-1.64,-2.57,-34.8
284.0,0.0,0.01,0.0,112.04,-46.44,-50.56,-1.64,-2.57,-34.8
284.0,0.0,0.01,0.0,112.04,-46.44,-50.56,-1.46,-2.67,-71.44
284.0,0.0,0.01,0.0,112.06,-46.39,-50.55,-1.46,-2.67,-71.44
284.0,0.0,0.01,0.0,112.06,-46.39,-50.55,-1.64,-2.58,-34.81
284.0,0.0,0.01,0.0,112.06,-46.39,-50.55,-1.64,-2.58,-34.81
284.0,0.0,0.01,0.0,112.06,-46.39,-50.55,-1.64,-2.58,-34.81
284.0,0.0,0.01,0.0,112.06,-46.39,-50.55,-1.47,-2.68,-71.44
284.0,0.01,0.0,0.0,112.11,-46.36,-50.54,-1.47,-2.68,-71.44
284.0,0.01,0.0,0.0,112.11,-46.36,-50.54,-1.64,-2.6,-34.8
284.0,0.01,0.0,0.0,112.11,-46.36,-50.54,-1.64,-2.6,-34.8
284.0,0.01,0.0,0.0,112.11,-46.36,-50.54,-1.64,-2.6,-34.8
284.0,0.01,0.0,0.0,112.11,-46.36,-50.54,-1.46,-2.69,-71.44
284.0,0.0,-0.01,0.0,112.13,-46.41,-50.52,-1.46,-2.69,-71.44
284.0,0.0,-0.01,0.0,112.13,-46.41,-50.52,-1.64,-2.6,-34.8
284.0,0.0,-0.01,0.0,112.13,-46.41,-50.52,-1.64,-2.6,-34.8
284.0,0.0,-0.01,0.0,112.13,-46.41,-50.52,-1.64,-2.6,-34.8
284.0,0.0,-0.01,0.0,112.13,-46.41,-50.52,-1.46,-2.7,-71.44
284.0,0.0,-0.01,0.0,112.14,-46.45,-50.52,-1.46,-2.7,-71.44
284.0,0.0,-0.01,0.0,112.14,-46.45,-50.52,-1.64,-2.6,-34.81
284.0,0.0,-0.01,0.0,112.14,-46.45,-50.52,-1.64,-2.6,-34.81
284.0,0.0,-0.01,0.0,112.14,-46.45,-50.52,-1.64,-2.6,-34.81
284.0,0.0,-0.01,0.0,112.14,-46.45,-50.52,-1.47,-2.7,-71.44
284.0,0.0,0.0,-0.0,112.17,-46.45,-50.53,-1.47,-2.7,-71.44
284.0,0.0,0.0,-0.0,112.17,-46.45,-50.53,-1.64,-2.59,-34.81
284.0,0.0,0.0,-0.0,112.17,-46.45,-50.53,-1.64,-2.59,-34.81
284.0,0.0,0.0,-0.0,112.17,-46.45,-50.53,-1.47,-2.7,-71.44
284.0,0.0,0.0,-0.0,112.17,-46.45,-50.53,-1.47,-2.7,-71.44
